pos,corr_resp,random,seq,block.thisRepN,block.thisTrialN,block.thisN,block.thisIndex,trials.thisRepN,trials.thisTrialN,trials.thisN,trials.thisIndex,trials_2.thisRepN,trials_2.thisTrialN,trials_2.thisN,trials_2.thisIndex,fixation.started,line1.started,line2.started,line3.started,line4.started,fixation.stopped,probe.started,key_resp.started,key_resp.keys,key_resp.corr,key_resp.rt,key_resp.duration,participant,session,date,expName,psychopyVersion,frameRate,
150,v,random,,0,0,0,0,0,0,0,1,,,,,14.33378929994069,15.321286299964413,15.321286299964413,15.321286299964413,15.321286299964413,15.337811300065368,16.32153129996732,16.32153129996732,v,1,0.4692112000193447,None,pulkit,001,2023-10-11_17h55.19.653,psychopy project 4,2023.1.3,59.98667093005914,
-50,x,random,,0,0,0,0,0,1,1,0,,,,,16.821500499965623,17.821945700095966,17.821945700095966,17.821945700095966,17.821945700095966,17.821945700095966,18.805622200015932,18.805622200015932,x,1,0.41386339999735355,None,pulkit,001,2023-10-11_17h55.19.653,psychopy project 4,2023.1.3,59.98667093005914,
50,c,random,,0,0,0,0,0,2,2,2,,,,,19.239169399952516,20.239501199917868,20.239501199917868,20.239501199917868,20.239501199917868,20.239501199917868,21.23999739997089,21.23999739997089,c,1,0.49953199992887676,None,pulkit,001,2023-10-11_17h55.19.653,psychopy project 4,2023.1.3,59.98667093005914,
-150,z,random,,0,0,0,0,0,3,3,3,,,,,21.756886899936944,22.757041899953038,22.757041899953038,22.757041899953038,22.757041899953038,22.757041899953038,23.757636999944225,23.757636999944225,z,1,0.41921239998191595,None,pulkit,001,2023-10-11_17h55.19.653,psychopy project 4,2023.1.3,59.98667093005914,
-150,z,random,,0,0,0,0,1,0,4,3,,,,,24.207471099914983,25.191560999955982,25.191560999955982,25.191560999955982,25.191560999955982,25.20807940000668,26.191742999944836,26.191742999944836,z,1,0.4642824998591095,None,pulkit,001,2023-10-11_17h55.19.653,psychopy project 4,2023.1.3,59.98667093005914,
150,v,random,,0,0,0,0,1,1,5,1,,,,,26.675246099941432,27.675676099956036,27.675676099956036,27.675676099956036,27.675676099956036,27.675676099956036,28.6760792999994,28.6760792999994,v,1,0.42081969999708235,None,pulkit,001,2023-10-11_17h55.19.653,psychopy project 4,2023.1.3,59.98667093005914,
50,c,random,,0,0,0,0,1,2,6,2,,,,,29.12619940005243,30.126774500124156,30.126774500124156,30.126774500124156,30.126774500124156,30.126774500124156,31.110409900080413,31.110409900080413,c,1,0.4513038001023233,None,pulkit,001,2023-10-11_17h55.19.653,psychopy project 4,2023.1.3,59.98667093005914,
-50,x,random,,0,0,0,0,1,3,7,0,,,,,31.59372349991463,32.59433380002156,32.59433380002156,32.59433380002156,32.59433380002156,32.59433380002156,33.578030300093815,33.578030300093815,x,1,0.41279660002328455,None,pulkit,001,2023-10-11_17h55.19.653,psychopy project 4,2023.1.3,59.98667093005914,
50,c,random,,0,0,0,0,2,0,8,2,,,,,34.011495999991894,35.0118440000806,35.0118440000806,35.0118440000806,35.0118440000806,35.0118440000806,36.012038900051266,36.012038900051266,c,1,0.5796197999734432,None,pulkit,001,2023-10-11_17h55.19.653,psychopy project 4,2023.1.3,59.98667093005914,
-150,z,random,,0,0,0,0,2,1,9,3,,,,,36.6125105000101,37.61288739996962,37.61288739996962,37.61288739996962,37.61288739996962,37.61288739996962,38.61297110002488,38.61297110002488,z,1,0.5219769000541419,None,pulkit,001,2023-10-11_17h55.19.653,psychopy project 4,2023.1.3,59.98667093005914,
-50,x,random,,0,0,0,0,2,2,10,0,,,,,39.16337800002657,40.16382219991647,40.16382219991647,40.16382219991647,40.16382219991647,40.16382219991647,41.16410779999569,41.16410779999569,x,1,0.47802860010415316,None,pulkit,001,2023-10-11_17h55.19.653,psychopy project 4,2023.1.3,59.98667093005914,
150,v,random,,0,0,0,0,2,3,11,1,,,,,41.6641770999413,42.664732800098136,42.664732800098136,42.664732800098136,42.664732800098136,42.664732800098136,43.64864100003615,43.64864100003615,v,1,0.48686870001256466,None,pulkit,001,2023-10-11_17h55.19.653,psychopy project 4,2023.1.3,59.98667093005914,
-150,z,random,,0,0,0,0,3,0,12,3,,,,,44.1651123999618,45.16543549997732,45.16543549997732,45.16543549997732,45.16543549997732,45.16543549997732,46.14944100007415,46.14944100007415,z,1,0.4328169000800699,None,pulkit,001,2023-10-11_17h55.19.653,psychopy project 4,2023.1.3,59.98667093005914,
50,c,random,,0,0,0,0,3,1,13,2,,,,,46.599450200097635,47.599838899914175,47.599838899914175,47.599838899914175,47.599838899914175,47.599838899914175,48.60046470002271,48.60046470002271,c,1,0.42029660008847713,None,pulkit,001,2023-10-11_17h55.19.653,psychopy project 4,2023.1.3,59.98667093005914,
150,v,random,,0,0,0,0,3,2,14,1,,,,,49.050706000067294,50.051027399953455,50.051027399953455,50.051027399953455,50.051027399953455,50.051027399953455,51.05139830010012,51.05139830010012,v,1,0.4492007000371814,None,pulkit,001,2023-10-11_17h55.19.653,psychopy project 4,2023.1.3,59.98667093005914,
-50,x,random,,0,0,0,0,3,3,15,0,,,,,51.51787180011161,52.518441800028086,52.518441800028086,52.518441800028086,52.518441800028086,52.518441800028086,53.5188494999893,53.5188494999893,x,1,0.516558300005272,None,pulkit,001,2023-10-11_17h55.19.653,psychopy project 4,2023.1.3,59.98667093005914,
150,v,random,,0,0,0,0,4,0,16,1,,,,,54.05219219997525,55.03620030009188,55.03620030009188,55.03620030009188,55.03620030009188,55.052924799965695,56.03638930013403,56.03638930013403,v,1,0.4641395998187363,None,pulkit,001,2023-10-11_17h55.19.653,psychopy project 4,2023.1.3,59.98667093005914,
-150,z,random,,0,0,0,0,4,1,17,3,,,,,56.519846600014716,57.52046860009432,57.52046860009432,57.52046860009432,57.52046860009432,57.52046860009432,58.52079360000789,58.52079360000789,z,1,0.49509099987335503,None,pulkit,001,2023-10-11_17h55.19.653,psychopy project 4,2023.1.3,59.98667093005914,
50,c,random,,0,0,0,0,4,2,18,2,,,,,59.037694399943575,60.03802610002458,60.03802610002458,60.03802610002458,60.03802610002458,60.03802610002458,61.03830650006421,61.03830650006421,c,1,0.41009830008260906,None,pulkit,001,2023-10-11_17h55.19.653,psychopy project 4,2023.1.3,59.98667093005914,
-50,x,random,,0,0,0,0,4,3,19,0,,,,,61.47174800001085,62.45546349999495,62.45546349999495,62.45546349999495,62.45546349999495,62.47197509999387,63.45603389991447,63.45603389991447,x,1,0.3280835000332445,None,pulkit,001,2023-10-11_17h55.19.653,psychopy project 4,2023.1.3,59.98667093005914,
-50,x,random,,0,0,0,0,5,0,20,0,,,,,63.806143699912354,64.80673389998265,64.80673389998265,64.80673389998265,64.80673389998265,64.80673389998265,65.80686810007319,65.80686810007319,x,1,0.4698777999728918,None,pulkit,001,2023-10-11_17h55.19.653,psychopy project 4,2023.1.3,59.98667093005914,
150,v,random,,0,0,0,0,5,1,21,1,,,,,66.30688629997894,67.30763519997708,67.30763519997708,67.30763519997708,67.30763519997708,67.30763519997708,68.30792749999091,68.30792749999091,v,1,0.4624185001011938,None,pulkit,001,2023-10-11_17h55.19.653,psychopy project 4,2023.1.3,59.98667093005914,
-150,z,random,,0,0,0,0,5,2,22,3,,,,,68.79135329998098,69.79162540007383,69.79162540007383,69.79162540007383,69.79162540007383,69.79162540007383,70.7919670001138,70.7919670001138,z,1,0.42394329980015755,None,pulkit,001,2023-10-11_17h55.19.653,psychopy project 4,2023.1.3,59.98667093005914,
50,c,random,,0,0,0,0,5,3,23,2,,,,,71.24236129992642,72.22592479991727,72.22592479991727,72.22592479991727,72.22592479991727,72.24282209994271,73.22631580010056,73.22631580010056,c,1,0.5103173998650163,None,pulkit,001,2023-10-11_17h55.19.653,psychopy project 4,2023.1.3,59.98667093005914,
50,c,random,,0,0,0,0,6,0,24,2,,,,,73.75974259991199,74.76021769992076,74.76021769992076,74.76021769992076,74.76021769992076,74.76021769992076,75.74386069993488,75.74386069993488,c,1,0.49511690018698573,None,pulkit,001,2023-10-11_17h55.19.653,psychopy project 4,2023.1.3,59.98667093005914,
150,v,random,,0,0,0,0,6,1,25,1,,,,,76.26094299997203,77.26126040006056,77.26126040006056,77.26126040006056,77.26126040006056,77.26126040006056,78.26169840013608,78.26169840013608,v,1,0.5192774999886751,None,pulkit,001,2023-10-11_17h55.19.653,psychopy project 4,2023.1.3,59.98667093005914,
-50,x,random,,0,0,0,0,6,2,26,0,,,,,78.81170479999855,79.79566480009817,79.79566480009817,79.79566480009817,79.79566480009817,79.81235420005396,80.79600919992663,80.79600919992663,x,1,0.6491479000542313,None,pulkit,001,2023-10-11_17h55.19.653,psychopy project 4,2023.1.3,59.98667093005914,
-150,z,random,,0,0,0,0,6,3,27,3,,,,,81.46290950011462,82.46337760007009,82.46337760007009,82.46337760007009,82.46337760007009,82.46337760007009,83.46343800006434,83.46343800006434,z,1,0.47254449990577996,None,pulkit,001,2023-10-11_17h55.19.653,psychopy project 4,2023.1.3,59.98667093005914,
50,c,random,,0,0,0,0,7,0,28,2,,,,,83.96385239996016,84.96425960003398,84.96425960003398,84.96425960003398,84.96425960003398,84.96425960003398,85.96450369991362,85.96450369991362,c,1,0.5099466999527067,None,pulkit,001,2023-10-11_17h55.19.653,psychopy project 4,2023.1.3,59.98667093005914,
-150,z,random,,0,0,0,0,7,1,29,3,,,,,86.49793189996853,87.49831479997374,87.49831479997374,87.49831479997374,87.49831479997374,87.49831479997374,88.48208360001445,88.48208360001445,z,1,0.6178170000202954,None,pulkit,001,2023-10-11_17h55.19.653,psychopy project 4,2023.1.3,59.98667093005914,
-50,x,random,,0,0,0,0,7,2,30,0,,,,,89.13241429999471,90.13261310011148,90.13261310011148,90.13261310011148,90.13261310011148,90.13261310011148,91.13316760002635,91.13316760002635,x,1,0.5017927000299096,None,pulkit,001,2023-10-11_17h55.19.653,psychopy project 4,2023.1.3,59.98667093005914,
150,v,random,,0,0,0,0,7,3,31,1,,,,,91.66656249994412,92.66692139999941,92.66692139999941,92.66692139999941,92.66692139999941,92.66692139999941,93.65079020010307,93.65079020010307,v,1,0.4810365999583155,None,pulkit,001,2023-10-11_17h55.19.653,psychopy project 4,2023.1.3,59.98667093005914,
-150,z,random,,0,0,0,0,8,0,32,3,,,,,94.15086890012026,95.13456730009057,95.13456730009057,95.13456730009057,95.13456730009057,95.15127309993841,96.13486049999483,96.13486049999483,z,1,0.4829699001275003,None,pulkit,001,2023-10-11_17h55.19.653,psychopy project 4,2023.1.3,59.98667093005914,
-50,x,random,,0,0,0,0,8,1,33,0,,,,,96.63502179994248,97.63545290008187,97.63545290008187,97.63545290008187,97.63545290008187,97.63545290008187,98.63576039997861,98.63576039997861,x,1,0.4451375000644475,None,pulkit,001,2023-10-11_17h55.19.653,psychopy project 4,2023.1.3,59.98667093005914,
150,v,random,,0,0,0,0,8,2,34,1,,,,,99.10292620002292,100.103217799915,100.103217799915,100.103217799915,100.103217799915,100.103217799915,101.10377110005356,101.10377110005356,v,1,0.5351945001166314,None,pulkit,001,2023-10-11_17h55.19.653,psychopy project 4,2023.1.3,59.98667093005914,
50,c,random,,0,0,0,0,8,3,35,2,,,,,101.67783230007626,102.68754100007936,102.68754100007936,102.68754100007936,102.68754100007936,102.68754100007936,103.68794919992797,103.68794919992797,c,1,0.4279813999310136,None,pulkit,001,2023-10-11_17h55.19.653,psychopy project 4,2023.1.3,59.98667093005914,
-50,x,random,,0,0,0,0,9,0,36,0,,,,,104.13786139991134,105.13847770006396,105.13847770006396,105.13847770006396,105.13847770006396,105.13847770006396,106.12222580006346,106.12222580006346,x,1,0.5128880001138896,None,pulkit,001,2023-10-11_17h55.19.653,psychopy project 4,2023.1.3,59.98667093005914,
150,v,random,,0,0,0,0,9,1,37,1,,,,,106.655541599961,107.63946219999343,107.63946219999343,107.63946219999343,107.63946219999343,107.6564086000435,108.63980409991927,108.63980409991927,v,1,0.49317020014859736,None,pulkit,001,2023-10-11_17h55.19.653,psychopy project 4,2023.1.3,59.98667093005914,
50,c,random,,0,0,0,0,9,2,38,2,,,,,109.1568390999455,110.15747010009363,110.15747010009363,110.15747010009363,110.15747010009363,110.15747010009363,111.1575193000026,111.1575193000026,c,1,0.5439405001234263,None,pulkit,001,2023-10-11_17h55.19.653,psychopy project 4,2023.1.3,59.98667093005914,
-150,z,random,,0,0,0,0,9,3,39,3,,,,,111.72430280013941,112.72504879999906,112.72504879999906,112.72504879999906,112.72504879999906,112.72504879999906,113.72515650000423,113.72515650000423,z,1,0.6123335000593215,None,pulkit,001,2023-10-11_17h55.19.653,psychopy project 4,2023.1.3,59.98667093005914,
150,v,random,,0,0,0,0,10,0,40,1,,,,,114.35856930003501,115.35888150008395,115.35888150008395,115.35888150008395,115.35888150008395,115.35888150008395,116.35935529996641,116.35935529996641,v,1,1.1094300001859665,None,pulkit,001,2023-10-11_17h55.19.653,psychopy project 4,2023.1.3,59.98667093005914,
50,c,random,,0,0,0,0,10,1,41,2,,,,,117.4930553000886,118.47691849991679,118.47691849991679,118.47691849991679,118.47691849991679,118.49364060000516,119.47713369992562,119.47713369992562,c,1,0.38711659982800484,None,pulkit,001,2023-10-11_17h55.19.653,psychopy project 4,2023.1.3,59.98667093005914,
-50,x,random,,0,0,0,0,10,2,42,0,,,,,119.89387429994531,120.89451120002195,120.89451120002195,120.89451120002195,120.89451120002195,120.89451120002195,121.87839039997198,121.87839039997198,x,1,0.393273500027135,None,pulkit,001,2023-10-11_17h55.19.653,psychopy project 4,2023.1.3,59.98667093005914,
-150,z,random,,0,0,0,0,10,3,43,3,,,,,122.29490770003758,123.29537760000676,123.29537760000676,123.29537760000676,123.29537760000676,123.29537760000676,124.29560870002024,124.29560870002024,z,1,0.3664343999698758,None,pulkit,001,2023-10-11_17h55.19.653,psychopy project 4,2023.1.3,59.98667093005914,
-50,x,random,,0,0,0,0,11,0,44,0,,,,,124.67916040006094,125.67939439998008,125.67939439998008,125.67939439998008,125.67939439998008,125.67939439998008,126.67995989997871,126.67995989997871,x,1,0.4444832999724895,None,pulkit,001,2023-10-11_17h55.19.653,psychopy project 4,2023.1.3,59.98667093005914,
150,v,random,,0,0,0,0,11,1,45,1,,,,,127.14674860006198,128.14728510007262,128.14728510007262,128.14728510007262,128.14728510007262,128.14728510007262,129.14739469997585,129.14739469997585,v,1,0.4151575998403132,None,pulkit,001,2023-10-11_17h55.19.653,psychopy project 4,2023.1.3,59.98667093005914,
-150,z,random,,0,0,0,0,11,2,46,3,,,,,129.5811455999501,130.58133390010335,130.58133390010335,130.58133390010335,130.58133390010335,130.58133390010335,131.5817150999792,131.5817150999792,x,0,0.40803769999183714,None,pulkit,001,2023-10-11_17h55.19.653,psychopy project 4,2023.1.3,59.98667093005914,
50,c,random,,0,0,0,0,11,3,47,2,,,,,132.01528599997982,133.01582999993116,133.01582999993116,133.01582999993116,133.01582999993116,133.01582999993116,134.01598139991984,134.01598139991984,c,1,0.5968860001303256,None,pulkit,001,2023-10-11_17h55.19.653,psychopy project 4,2023.1.3,59.98667093005914,
150,v,random,,0,0,0,0,12,0,48,1,,,,,134.63321639993228,135.63330120011233,135.63330120011233,135.63330120011233,135.63330120011233,135.63330120011233,136.63363950001076,136.63363950001076,v,1,0.4774827999062836,None,pulkit,001,2023-10-11_17h55.19.653,psychopy project 4,2023.1.3,59.98667093005914,
50,c,random,,0,0,0,0,12,1,49,2,,,,,137.1339575999882,138.13422950007953,138.13422950007953,138.13422950007953,138.13422950007953,138.13422950007953,139.11817099992186,139.11817099992186,c,1,0.7087824998889118,None,pulkit,001,2023-10-11_17h55.19.653,psychopy project 4,2023.1.3,59.98667093005914,
-150,z,random,,0,0,0,0,12,2,50,3,,,,,139.85138910007663,140.85205779992975,140.85205779992975,140.85205779992975,140.85205779992975,140.85205779992975,141.8522357000038,141.8522357000038,z,1,0.5241899997927248,None,pulkit,001,2023-10-11_17h55.19.653,psychopy project 4,2023.1.3,59.98667093005914,
-50,x,random,,0,0,0,0,12,3,51,0,,,,,142.40240920009091,143.40302129997872,143.40302129997872,143.40302129997872,143.40302129997872,143.40302129997872,144.38679730007425,144.38679730007425,x,1,0.7842534999363124,None,pulkit,001,2023-10-11_17h55.19.653,psychopy project 4,2023.1.3,59.98667093005914,
-150,z,random,,0,0,0,0,13,0,52,3,,,,,145.203680699924,146.20409010001458,146.20409010001458,146.20409010001458,146.20409010001458,146.20409010001458,147.20448750001378,147.20448750001378,z,1,0.699536900036037,None,pulkit,001,2023-10-11_17h55.19.653,psychopy project 4,2023.1.3,59.98667093005914,
150,v,random,,0,0,0,0,13,1,53,1,,,,,147.92154809995554,148.92174919997342,148.92174919997342,148.92174919997342,148.92174919997342,148.92174919997342,149.92225890001282,149.92225890001282,v,1,0.4974777000024915,None,pulkit,001,2023-10-11_17h55.19.653,psychopy project 4,2023.1.3,59.98667093005914,
-50,x,random,,0,0,0,0,13,2,54,0,,,,,150.4388850000687,151.4395823001396,151.4395823001396,151.4395823001396,151.4395823001396,151.4395823001396,152.44000880001113,152.44000880001113,x,1,0.5947942000348121,None,pulkit,001,2023-10-11_17h55.19.653,psychopy project 4,2023.1.3,59.98667093005914,
50,c,random,,0,0,0,0,13,3,55,2,,,,,153.05635670013726,154.0571274999529,154.0571274999529,154.0571274999529,154.0571274999529,154.0571274999529,155.04081399994902,155.04081399994902,c,1,0.5355396999511868,None,pulkit,001,2023-10-11_17h55.19.653,psychopy project 4,2023.1.3,59.98667093005914,
-50,x,random,,0,0,0,0,14,0,56,0,,,,,155.60760019998997,156.6080336999148,156.6080336999148,156.6080336999148,156.6080336999148,156.6080336999148,157.6084010999184,157.6084010999184,x,1,0.6797638998832554,None,pulkit,001,2023-10-11_17h55.19.653,psychopy project 4,2023.1.3,59.98667093005914,
-150,z,random,,0,0,0,0,14,1,57,3,,,,,158.30856100004166,159.30897130002268,159.30897130002268,159.30897130002268,159.30897130002268,159.30897130002268,160.30948549997993,160.30948549997993,z,1,0.43253240012563765,None,pulkit,001,2023-10-11_17h55.19.653,psychopy project 4,2023.1.3,59.98667093005914,
150,v,random,,0,0,0,0,14,2,58,1,,,,,160.75941890012473,161.7600422000978,161.7600422000978,161.7600422000978,161.7600422000978,161.7600422000978,162.76030710013583,162.76030710013583,v,1,0.8088148001115769,None,pulkit,001,2023-10-11_17h55.19.653,psychopy project 4,2023.1.3,59.98667093005914,
50,c,random,,0,0,0,0,14,3,59,2,,,,,163.5938500999473,164.59413169999607,164.59413169999607,164.59413169999607,164.59413169999607,164.59413169999607,165.57816160004586,165.57816160004586,c,1,0.4515015999786556,None,pulkit,001,2023-10-11_17h55.19.653,psychopy project 4,2023.1.3,59.98667093005914,
150,v,random,,0,0,0,0,15,0,60,1,,,,,166.06124159996398,167.04514029994607,167.04514029994607,167.04514029994607,167.04514029994607,167.06162769999355,168.04559949995019,168.04559949995019,v,1,0.4539960001129657,None,pulkit,001,2023-10-11_17h55.19.653,psychopy project 4,2023.1.3,59.98667093005914,
50,c,random,,0,0,0,0,15,1,61,2,,,,,168.52911849995144,169.5296555000823,169.5296555000823,169.5296555000823,169.5296555000823,169.5296555000823,170.5132732000202,170.5132732000202,c,1,0.5538846000563353,None,pulkit,001,2023-10-11_17h55.19.653,psychopy project 4,2023.1.3,59.98667093005914,
-150,z,random,,0,0,0,0,15,2,62,3,,,,,171.09690760006197,172.09731280012056,172.09731280012056,172.09731280012056,172.09731280012056,172.09731280012056,173.0975536000915,173.0975536000915,z,1,0.4009465998969972,None,pulkit,001,2023-10-11_17h55.19.653,psychopy project 4,2023.1.3,59.98667093005914,
-50,x,random,,0,0,0,0,15,3,63,0,,,,,173.5309381999541,174.51478380011395,174.51478380011395,174.51478380011395,174.51478380011395,174.53163200011477,175.51511809998192,175.51511809998192,x,1,0.3950143000110984,None,pulkit,001,2023-10-11_17h55.19.653,psychopy project 4,2023.1.3,59.98667093005914,
-50,x,random,,0,0,0,0,16,0,64,0,,,,,175.93185129994527,176.91568269999698,176.91568269999698,176.91568269999698,176.91568269999698,176.9325483001303,177.91588019998744,177.91588019998744,x,1,0.44109199987724423,None,pulkit,001,2023-10-11_17h55.19.653,psychopy project 4,2023.1.3,59.98667093005914,
150,v,random,,0,0,0,0,16,1,65,1,,,,,178.38276890013367,179.38346379995346,179.38346379995346,179.38346379995346,179.38346379995346,179.38346379995346,180.3671114000026,180.3671114000026,v,1,0.44243910000659525,None,pulkit,001,2023-10-11_17h55.19.653,psychopy project 4,2023.1.3,59.98667093005914,
50,c,random,,0,0,0,0,16,2,66,2,,,,,180.8341139999684,181.83424429991283,181.83424429991283,181.83424429991283,181.83424429991283,181.83424429991283,182.8349480999168,182.8349480999168,c,1,0.4076545999851078,None,pulkit,001,2023-10-11_17h55.19.653,psychopy project 4,2023.1.3,59.98667093005914,
-150,z,random,,0,0,0,0,16,3,67,3,,,,,183.2681666999124,184.26841680007055,184.26841680007055,184.26841680007055,184.26841680007055,184.26841680007055,185.26870879996568,185.26870879996568,z,1,0.4287088999990374,None,pulkit,001,2023-10-11_17h55.19.653,psychopy project 4,2023.1.3,59.98667093005914,
150,v,random,,0,0,0,0,17,0,68,1,,,,,185.7188526999671,186.71949209994636,186.71949209994636,186.71949209994636,186.71949209994636,186.71949209994636,187.7034090999514,187.7034090999514,v,1,0.44488249998539686,None,pulkit,001,2023-10-11_17h55.19.653,psychopy project 4,2023.1.3,59.98667093005914,
50,c,random,,0,0,0,0,17,1,69,2,,,,,188.16989169991575,189.15366500010714,189.15366500010714,189.15366500010714,189.15366500010714,189.17034190008417,190.15398430009373,190.15398430009373,c,1,0.5021886001341045,None,pulkit,001,2023-10-11_17h55.19.653,psychopy project 4,2023.1.3,59.98667093005914,
-150,z,random,,0,0,0,0,17,2,70,3,,,,,190.68749790010042,191.68793090013787,191.68793090013787,191.68793090013787,191.68793090013787,191.68793090013787,192.67177170002833,192.67177170002833,z,1,0.30346140009351075,None,pulkit,001,2023-10-11_17h55.19.653,psychopy project 4,2023.1.3,59.98667093005914,
-50,x,random,,0,0,0,0,17,3,71,0,,,,,193.00524009997025,194.00572129990906,194.00572129990906,194.00572129990906,194.00572129990906,194.00572129990906,195.00602179998532,195.00602179998532,x,1,0.411401400109753,None,pulkit,001,2023-10-11_17h55.19.653,psychopy project 4,2023.1.3,59.98667093005914,
150,v,random,,0,0,0,0,18,0,72,1,,,,,195.43957960000262,196.43988900003023,196.43988900003023,196.43988900003023,196.43988900003023,196.43988900003023,197.44035149994306,197.44035149994306,v,1,0.404342400142923,None,pulkit,001,2023-10-11_17h55.19.653,psychopy project 4,2023.1.3,59.98667093005914,
-150,z,random,,0,0,0,0,18,1,73,3,,,,,197.87359500001185,198.874029800063,198.874029800063,198.874029800063,198.874029800063,198.874029800063,199.87425519991666,199.87425519991666,z,1,0.4422681999858469,None,pulkit,001,2023-10-11_17h55.19.653,psychopy project 4,2023.1.3,59.98667093005914,
50,c,random,,0,0,0,0,18,2,74,2,,,,,200.3412166000344,201.32494390010834,201.32494390010834,201.32494390010834,201.32494390010834,201.34186709998176,202.32524659996852,202.32524659996852,c,1,0.41126349987462163,None,pulkit,001,2023-10-11_17h55.19.653,psychopy project 4,2023.1.3,59.98667093005914,
-50,x,random,,0,0,0,0,18,3,75,0,,,,,202.7587886999827,203.75932570011355,203.75932570011355,203.75932570011355,203.75932570011355,203.75932570011355,204.75949260010384,204.75949260010384,x,1,0.3745717001147568,None,pulkit,001,2023-10-11_17h55.19.653,psychopy project 4,2023.1.3,59.98667093005914,
50,c,random,,0,0,0,0,19,0,76,2,,,,,205.15972950006835,206.16028130007908,206.16028130007908,206.16028130007908,206.16028130007908,206.16028130007908,207.16061639995314,207.16061639995314,c,1,0.49017290002666414,None,pulkit,001,2023-10-11_17h55.19.653,psychopy project 4,2023.1.3,59.98667093005914,
-50,x,random,,0,0,0,0,19,1,77,0,,,,,207.6772682000883,208.67764359991997,208.67764359991997,208.67764359991997,208.67764359991997,208.67764359991997,209.67815930000506,209.67815930000506,x,1,0.3317727998364717,None,pulkit,001,2023-10-11_17h55.19.653,psychopy project 4,2023.1.3,59.98667093005914,
-150,z,random,,0,0,0,0,19,2,78,3,,,,,210.02826340007596,211.02853429992683,211.02853429992683,211.02853429992683,211.02853429992683,211.02853429992683,212.02905220002867,212.02905220002867,z,1,0.404581299982965,None,pulkit,001,2023-10-11_17h55.19.653,psychopy project 4,2023.1.3,59.98667093005914,
150,v,random,,0,0,0,0,19,3,79,1,,,,,212.4626152999699,213.44630660000257,213.44630660000257,213.44630660000257,213.44630660000257,213.4631813999731,214.44670150009915,214.44670150009915,v,1,0.39602690003812313,None,pulkit,001,2023-10-11_17h55.19.653,psychopy project 4,2023.1.3,59.98667093005914,
-150,z,random,,0,0,0,0,20,0,80,3,,,,,214.86353179998696,215.86373240011744,215.86373240011744,215.86373240011744,215.86373240011744,215.86373240011744,216.8642762999516,216.8642762999516,z,1,0.3991874000057578,None,pulkit,001,2023-10-11_17h55.19.653,psychopy project 4,2023.1.3,59.98667093005914,
50,c,random,,0,0,0,0,20,1,81,2,,,,,217.2809864000883,218.28130630007945,218.28130630007945,218.28130630007945,218.28130630007945,218.28130630007945,219.281818700023,219.281818700023,c,1,0.47310859989374876,None,pulkit,001,2023-10-11_17h55.19.653,psychopy project 4,2023.1.3,59.98667093005914,
150,v,random,,0,0,0,0,20,2,82,1,,,,,219.78191000013612,220.78250540001318,220.78250540001318,220.78250540001318,220.78250540001318,220.78250540001318,221.78273080009967,221.78273080009967,v,1,0.49615209992043674,None,pulkit,001,2023-10-11_17h55.19.653,psychopy project 4,2023.1.3,59.98667093005914,
-50,x,random,,0,0,0,0,20,3,83,0,,,,,222.2997095999308,223.30021280003712,223.30021280003712,223.30021280003712,223.30021280003712,223.30021280003712,224.30033380002715,224.30033380002715,x,1,0.3879710000474006,None,pulkit,001,2023-10-11_17h55.19.653,psychopy project 4,2023.1.3,59.98667093005914,
50,c,random,,0,0,0,0,21,0,84,2,,,,,224.71731470013037,225.71783809992485,225.71783809992485,225.71783809992485,225.71783809992485,225.71783809992485,226.71785790007561,226.71785790007561,c,1,0.5304068000987172,None,pulkit,001,2023-10-11_17h55.19.653,psychopy project 4,2023.1.3,59.98667093005914,
-50,x,random,,0,0,0,0,21,1,85,0,,,,,227.26813720003702,228.26861259993166,228.26861259993166,228.26861259993166,228.26861259993166,228.26861259993166,229.26904990011826,229.26904990011826,x,1,0.4624267998151481,None,pulkit,001,2023-10-11_17h55.19.653,psychopy project 4,2023.1.3,59.98667093005914,
150,v,random,,0,0,0,0,21,2,86,1,,,,,229.7524427000899,230.75279080006294,230.75279080006294,230.75279080006294,230.75279080006294,230.75279080006294,231.75319509999827,231.75319509999827,v,1,0.5270462001208216,None,pulkit,001,2023-10-11_17h55.19.653,psychopy project 4,2023.1.3,59.98667093005914,
-150,z,random,,0,0,0,0,21,3,87,3,,,,,232.3031153001357,233.30381780001335,233.30381780001335,233.30381780001335,233.30381780001335,233.30381780001335,234.30396710010245,234.30396710010245,z,1,0.3916712000500411,None,pulkit,001,2023-10-11_17h55.19.653,psychopy project 4,2023.1.3,59.98667093005914,
50,c,random,,0,0,0,0,22,0,88,2,,,,,234.72081910003908,235.70476360013708,235.70476360013708,235.70476360013708,235.70476360013708,235.7214665999636,236.7049219000619,236.7049219000619,c,1,0.38541149999946356,None,pulkit,001,2023-10-11_17h55.19.653,psychopy project 4,2023.1.3,59.98667093005914,
-50,x,random,,0,0,0,0,22,1,89,0,,,,,237.1217958999332,238.1223820000887,238.1223820000887,238.1223820000887,238.1223820000887,238.1223820000887,239.1224557000678,239.1224557000678,x,1,0.3474140001926571,None,pulkit,001,2023-10-11_17h55.19.653,psychopy project 4,2023.1.3,59.98667093005914,
-150,z,random,,0,0,0,0,22,2,90,3,,,,,239.48950810008682,240.49014200014062,240.49014200014062,240.49014200014062,240.49014200014062,240.49014200014062,241.4903605999425,241.4903605999425,z,1,0.37139540002681315,None,pulkit,001,2023-10-11_17h55.19.653,psychopy project 4,2023.1.3,59.98667093005914,
150,v,random,,0,0,0,0,22,3,91,1,,,,,241.89027590001933,242.89070230000652,242.89070230000652,242.89070230000652,242.89070230000652,242.89070230000652,243.87442860007286,243.87442860007286,v,1,0.4008806999772787,None,pulkit,001,2023-10-11_17h55.19.653,psychopy project 4,2023.1.3,59.98667093005914,
-50,x,random,,0,0,0,0,23,0,92,0,,,,,244.30814500013366,245.3082127000671,245.3082127000671,245.3082127000671,245.3082127000671,245.3082127000671,246.3087357999757,246.3087357999757,x,1,0.3666827001143247,None,pulkit,001,2023-10-11_17h55.19.653,psychopy project 4,2023.1.3,59.98667093005914,
-150,z,random,,0,0,0,0,23,1,93,3,,,,,246.69218269991688,247.69258200004697,247.69258200004697,247.69258200004697,247.69258200004697,247.69258200004697,248.69290470005944,248.69290470005944,z,1,0.4050033001694828,None,pulkit,001,2023-10-11_17h55.19.653,psychopy project 4,2023.1.3,59.98667093005914,
50,c,random,,0,0,0,0,23,2,94,2,,,,,249.12635789997876,250.11026569991373,250.11026569991373,250.11026569991373,250.11026569991373,250.12702949997038,251.11046730005182,251.11046730005182,c,1,0.40034799999557436,None,pulkit,001,2023-10-11_17h55.19.653,psychopy project 4,2023.1.3,59.98667093005914,
150,v,random,,0,0,0,0,23,3,95,1,,,,,251.52737580006942,252.52779590012506,252.52779590012506,252.52779590012506,252.52779590012506,252.52779590012506,253.5282845001202,253.5282845001202,v,1,0.42585160001181066,None,pulkit,001,2023-10-11_17h55.19.653,psychopy project 4,2023.1.3,59.98667093005914,
-50,x,random,,0,0,0,0,24,0,96,0,,,,,253.97829240001738,254.96211330010556,254.96211330010556,254.96211330010556,254.96211330010556,254.9787407000549,255.96219370001927,255.96219370001927,x,1,0.4977643000893295,None,pulkit,001,2023-10-11_17h55.19.653,psychopy project 4,2023.1.3,59.98667093005914,
150,v,random,,0,0,0,0,24,1,97,1,,,,,256.4791655000299,257.47979489993304,257.47979489993304,257.47979489993304,257.47979489993304,257.47979489993304,258.46305770007893,258.46305770007893,v,1,0.4936519998591393,None,pulkit,001,2023-10-11_17h55.19.653,psychopy project 4,2023.1.3,59.98667093005914,
50,c,random,,0,0,0,0,24,2,98,2,,,,,258.9800996000413,259.96378730004653,259.96378730004653,259.96378730004653,259.96378730004653,259.9805155999493,260.96422480000183,260.96422480000183,c,1,0.4606008001137525,None,pulkit,001,2023-10-11_17h55.19.653,psychopy project 4,2023.1.3,59.98667093005914,
-150,z,random,,0,0,0,0,24,3,99,3,,,,,261.4479503000621,262.4482674000319,262.4482674000319,262.4482674000319,262.4482674000319,262.4482674000319,263.4485742999241,263.4485742999241,z,1,0.3588147999253124,None,pulkit,001,2023-10-11_17h55.19.653,psychopy project 4,2023.1.3,59.98667093005914,
-150,z,random,,0,0,0,0,25,0,100,3,,,,,263.83212479995564,264.8323969000485,264.8323969000485,264.8323969000485,264.8323969000485,264.8323969000485,265.83277259999886,265.83277259999886,z,1,0.46841019997373223,None,pulkit,001,2023-10-11_17h55.19.653,psychopy project 4,2023.1.3,59.98667093005914,
50,c,random,,0,0,0,0,25,1,101,2,,,,,266.3328724000603,267.3166277001146,267.3166277001146,267.3166277001146,267.3166277001146,267.3336080999579,268.31713799992576,268.31713799992576,c,1,0.5612485001329333,None,pulkit,001,2023-10-11_17h55.19.653,psychopy project 4,2023.1.3,59.98667093005914,
150,v,random,,0,0,0,0,25,2,102,1,,,,,268.90054080006666,269.9011912001297,269.9011912001297,269.9011912001297,269.9011912001297,269.9011912001297,270.88479140005074,270.88479140005074,v,1,0.4882825999520719,None,pulkit,001,2023-10-11_17h55.19.653,psychopy project 4,2023.1.3,59.98667093005914,
-50,x,random,,0,0,0,0,25,3,103,0,,,,,271.40150670008734,272.40220259991474,272.40220259991474,272.40220259991474,272.40220259991474,272.40220259991474,273.4022212999407,273.4022212999407,x,1,0.33677570009604096,None,pulkit,001,2023-10-11_17h55.19.653,psychopy project 4,2023.1.3,59.98667093005914,
150,v,random,,0,0,0,0,26,0,104,1,,,,,273.7689352000598,274.7693505000789,274.7693505000789,274.7693505000789,274.7693505000789,274.7693505000789,275.75327980006114,275.75327980006114,v,1,0.476758899865672,None,pulkit,001,2023-10-11_17h55.19.653,psychopy project 4,2023.1.3,59.98667093005914,
-150,z,random,,0,0,0,0,26,1,105,3,,,,,276.25334309996106,277.2538821999915,277.2538821999915,277.2538821999915,277.2538821999915,277.2538821999915,278.2376497001387,278.2376497001387,z,1,0.4886342000681907,None,pulkit,001,2023-10-11_17h55.19.653,psychopy project 4,2023.1.3,59.98667093005914,
-50,x,random,,0,0,0,0,26,2,106,0,,,,,278.7545275001321,279.7549191999715,279.7549191999715,279.7549191999715,279.7549191999715,279.7549191999715,280.755204499932,280.755204499932,x,1,0.5740179000422359,None,pulkit,001,2023-10-11_17h55.19.653,psychopy project 4,2023.1.3,59.98667093005914,
50,c,random,,0,0,0,0,26,3,107,2,,,,,281.3555366001092,282.355882700067,282.355882700067,282.355882700067,282.355882700067,282.355882700067,283.35628439998254,283.35628439998254,c,1,0.6155387000180781,None,pulkit,001,2023-10-11_17h55.19.653,psychopy project 4,2023.1.3,59.98667093005914,
-150,z,random,,0,0,0,0,27,0,108,3,,,,,283.98992200009525,284.9900102999527,284.9900102999527,284.9900102999527,284.9900102999527,284.9900102999527,285.990513500059,285.990513500059,z,1,0.4336141000967473,None,pulkit,001,2023-10-11_17h55.19.653,psychopy project 4,2023.1.3,59.98667093005914,
-50,x,random,,0,0,0,0,27,1,109,0,,,,,286.44059889996424,287.44109310000204,287.44109310000204,287.44109310000204,287.44109310000204,287.44109310000204,288.44131270004436,288.44131270004436,x,1,0.45148769998922944,None,pulkit,001,2023-10-11_17h55.19.653,psychopy project 4,2023.1.3,59.98667093005914,
150,v,random,,0,0,0,0,27,2,110,1,,,,,288.92479780013673,289.90881750010885,289.90881750010885,289.90881750010885,289.90881750010885,289.92534680012614,290.908884299919,290.908884299919,v,1,0.43630279996432364,None,pulkit,001,2023-10-11_17h55.19.653,psychopy project 4,2023.1.3,59.98667093005914,
50,c,random,,0,0,0,0,27,3,111,2,,,,,291.37596129998565,292.37633410003036,292.37633410003036,292.37633410003036,292.37633410003036,292.37633410003036,293.37645599991083,293.37645599991083,c,1,0.5057369999121875,None,pulkit,001,2023-10-11_17h55.19.653,psychopy project 4,2023.1.3,59.98667093005914,
-150,z,random,,0,0,0,0,28,0,112,3,,,,,293.91020729998127,294.91064919997007,294.91064919997007,294.91064919997007,294.91064919997007,294.91064919997007,295.91102260001935,295.91102260001935,z,1,0.44304020004346967,None,pulkit,001,2023-10-11_17h55.19.653,psychopy project 4,2023.1.3,59.98667093005914,
150,v,random,,0,0,0,0,28,1,113,1,,,,,296.37799730012193,297.37806040002033,297.37806040002033,297.37806040002033,297.37806040002033,297.37806040002033,298.3784702999983,298.3784702999983,v,1,0.43782570003531873,None,pulkit,001,2023-10-11_17h55.19.653,psychopy project 4,2023.1.3,59.98667093005914,
-50,x,random,,0,0,0,0,28,2,114,0,,,,,298.8454583999701,299.8455324000679,299.8455324000679,299.8455324000679,299.8455324000679,299.8455324000679,300.84602950001135,300.84602950001135,x,1,0.9724883998278528,None,pulkit,001,2023-10-11_17h55.19.653,psychopy project 4,2023.1.3,59.98667093005914,
50,c,random,,0,0,0,0,28,3,115,2,,,,,301.8466189999599,302.8471163001377,302.8471163001377,302.8471163001377,302.8471163001377,302.8471163001377,303.84715780010447,303.84715780010447,c,1,0.3930104000028223,None,pulkit,001,2023-10-11_17h55.19.653,psychopy project 4,2023.1.3,59.98667093005914,
150,v,random,,0,0,0,0,29,0,116,1,,,,,304.2640422999393,305.2643764000386,305.2643764000386,305.2643764000386,305.2643764000386,305.2643764000386,306.24820609996095,306.24820609996095,v,1,0.35487430007196963,None,pulkit,001,2023-10-11_17h55.19.653,psychopy project 4,2023.1.3,59.98667093005914,
50,c,random,,0,0,0,0,29,1,117,2,,,,,306.631462899968,307.63212630013004,307.63212630013004,307.63212630013004,307.63212630013004,307.63212630013004,308.63247269997373,308.63247269997373,c,1,0.3981258000712842,None,pulkit,001,2023-10-11_17h55.19.653,psychopy project 4,2023.1.3,59.98667093005914,
-50,x,random,,0,0,0,0,29,2,118,0,,,,,309.0493934999686,310.04959359997883,310.04959359997883,310.04959359997883,310.04959359997883,310.04959359997883,311.0501824999228,311.0501824999228,x,1,0.3180368000175804,None,pulkit,001,2023-10-11_17h55.19.653,psychopy project 4,2023.1.3,59.98667093005914,
-150,z,random,,0,0,0,0,29,3,119,3,,,,,311.4001235999167,312.4006401000079,312.4006401000079,312.4006401000079,312.4006401000079,312.4006401000079,313.4008361999877,313.4008361999877,z,1,0.4746403000317514,None,pulkit,001,2023-10-11_17h55.19.653,psychopy project 4,2023.1.3,59.98667093005914,
-150,z,random,,0,0,0,0,30,0,120,3,,,,,313.9011669999454,314.9014817001298,314.9014817001298,314.9014817001298,314.9014817001298,314.9014817001298,315.8852065000683,315.8852065000683,z,1,0.4123777998611331,None,pulkit,001,2023-10-11_17h55.19.653,psychopy project 4,2023.1.3,59.98667093005914,
50,c,random,,0,0,0,0,30,1,121,2,,,,,316.31875460012816,317.319016299909,317.319016299909,317.319016299909,317.319016299909,317.319016299909,318.319512499962,318.319512499962,c,1,0.4420324999373406,None,pulkit,001,2023-10-11_17h55.19.653,psychopy project 4,2023.1.3,59.98667093005914,
150,v,random,,0,0,0,0,30,2,122,1,,,,,318.7861975999549,319.7867620999459,319.7867620999459,319.7867620999459,319.7867620999459,319.7867620999459,320.78688240004703,320.78688240004703,v,1,0.3611858000513166,None,pulkit,001,2023-10-11_17h55.19.653,psychopy project 4,2023.1.3,59.98667093005914,
-50,x,random,,0,0,0,0,30,3,123,0,,,,,321.1707262999844,322.17112360009924,322.17112360009924,322.17112360009924,322.17112360009924,322.17112360009924,323.17119470005855,323.17119470005855,x,1,0.3562453000340611,None,pulkit,001,2023-10-11_17h55.19.653,psychopy project 4,2023.1.3,59.98667093005914,
150,v,random,,0,0,0,0,31,0,124,1,,,,,323.5546409001108,324.555115400115,324.555115400115,324.555115400115,324.555115400115,324.555115400115,325.5556632000953,325.5556632000953,v,1,0.38299049995839596,None,pulkit,001,2023-10-11_17h55.19.653,psychopy project 4,2023.1.3,59.98667093005914,
50,c,random,,0,0,0,0,31,1,125,2,,,,,325.9556034000125,326.95598770002834,326.95598770002834,326.95598770002834,326.95598770002834,326.95598770002834,327.9564658999443,327.9564658999443,c,1,0.4376932999584824,None,pulkit,001,2023-10-11_17h55.19.653,psychopy project 4,2023.1.3,59.98667093005914,
-50,x,random,,0,0,0,0,31,2,126,0,,,,,328.4233468999155,329.4238885000814,329.4238885000814,329.4238885000814,329.4238885000814,329.4238885000814,330.42398139997385,330.42398139997385,x,1,0.3600453999824822,None,pulkit,001,2023-10-11_17h55.19.653,psychopy project 4,2023.1.3,59.98667093005914,
-150,z,random,,0,0,0,0,31,3,127,3,,,,,330.8075159001164,331.79113840009086,331.79113840009086,331.79113840009086,331.79113840009086,331.80783790000714,332.79164810013026,332.79164810013026,z,1,0.351584600051865,None,pulkit,001,2023-10-11_17h55.19.653,psychopy project 4,2023.1.3,59.98667093005914,
-50,x,random,,0,0,0,0,32,0,128,0,,,,,333.17520099994726,334.1756094999146,334.1756094999146,334.1756094999146,334.1756094999146,334.1756094999146,335.1758511001244,335.1758511001244,x,1,0.5392660000361502,None,pulkit,001,2023-10-11_17h55.19.653,psychopy project 4,2023.1.3,59.98667093005914,
150,v,random,,0,0,0,0,32,1,129,1,,,,,335.74254469992593,336.74311490007676,336.74311490007676,336.74311490007676,336.74311490007676,336.74311490007676,337.7268749999348,337.7268749999348,v,1,0.36702440003864467,None,pulkit,001,2023-10-11_17h55.19.653,psychopy project 4,2023.1.3,59.98667093005914,
50,c,random,,0,0,0,0,32,2,130,2,,,,,338.11041790014133,339.11058810004033,339.11058810004033,339.11058810004033,339.11058810004033,339.11058810004033,340.1112562001217,340.1112562001217,c,1,0.5234106001444161,None,pulkit,001,2023-10-11_17h55.19.653,psychopy project 4,2023.1.3,59.98667093005914,
-150,z,random,,0,0,0,0,32,3,131,3,,,,,340.66128060012124,341.66168470005505,341.66168470005505,341.66168470005505,341.66168470005505,341.66168470005505,342.64530270011164,342.64530270011164,z,1,0.40665300004184246,None,pulkit,001,2023-10-11_17h55.19.653,psychopy project 4,2023.1.3,59.98667093005914,
-150,z,random,,0,0,0,0,33,0,132,3,,,,,343.07895100000314,344.07938769995235,344.07938769995235,344.07938769995235,344.07938769995235,344.07938769995235,345.07951189996675,345.07951189996675,z,1,0.35444219992496073,None,pulkit,001,2023-10-11_17h55.19.653,psychopy project 4,2023.1.3,59.98667093005914,
50,c,random,,0,0,0,0,33,1,133,2,,,,,345.4630472001154,346.46364940004423,346.46364940004423,346.46364940004423,346.46364940004423,346.46364940004423,347.44716709991917,347.44716709991917,c,1,0.5026315001305193,None,pulkit,001,2023-10-11_17h55.19.653,psychopy project 4,2023.1.3,59.98667093005914,
-50,x,random,,0,0,0,0,33,2,134,0,,,,,347.9807697001379,348.981253700098,348.981253700098,348.981253700098,348.981253700098,348.981253700098,349.9813675999176,349.9813675999176,z,0,1.0273317000828683,None,pulkit,001,2023-10-11_17h55.19.653,psychopy project 4,2023.1.3,59.98667093005914,
150,v,random,,0,0,0,0,33,3,135,1,,,,,351.0319066999946,352.03236650000326,352.03236650000326,352.03236650000326,352.03236650000326,352.03236650000326,353.0328454999253,353.0328454999253,v,1,0.8189459000714123,None,pulkit,001,2023-10-11_17h55.19.653,psychopy project 4,2023.1.3,59.98667093005914,
-150,z,random,,0,0,0,0,34,0,136,3,,,,,353.88283020001836,354.8666584000457,354.8666584000457,354.8666584000457,354.8666584000457,354.883318600012,355.86729690013453,355.86729690013453,z,1,0.4142376999370754,None,pulkit,001,2023-10-11_17h55.19.653,psychopy project 4,2023.1.3,59.98667093005914,
150,v,random,,0,0,0,0,34,1,137,1,,,,,356.30028999992646,357.2843488000799,357.2843488000799,357.2843488000799,357.2843488000799,357.30103929992765,358.2844986000564,358.2844986000564,v,1,0.37233070004731417,None,pulkit,001,2023-10-11_17h55.19.653,psychopy project 4,2023.1.3,59.98667093005914,
-50,x,random,,0,0,0,0,34,2,138,0,,,,,358.68462810013443,359.68530509993434,359.68530509993434,359.68530509993434,359.68530509993434,359.68530509993434,360.68532090005465,360.68532090005465,x,1,0.33785349992103875,None,pulkit,001,2023-10-11_17h55.19.653,psychopy project 4,2023.1.3,59.98667093005914,
50,c,random,,0,0,0,0,34,3,139,2,,,,,361.05232569994405,362.05259869992733,362.05259869992733,362.05259869992733,362.05259869992733,362.05259869992733,363.05313399992883,363.05313399992883,c,1,0.3302061001304537,None,pulkit,001,2023-10-11_17h55.19.653,psychopy project 4,2023.1.3,59.98667093005914,
50,c,random,,0,0,0,0,35,0,140,2,,,,,363.4032123000361,364.4035891999956,364.4035891999956,364.4035891999956,364.4035891999956,364.4035891999956,365.4039978000801,365.4039978000801,c,1,0.432851699879393,None,pulkit,001,2023-10-11_17h55.19.653,psychopy project 4,2023.1.3,59.98667093005914,
-50,x,random,,0,0,0,0,35,1,141,0,,,,,365.85394709999673,366.8546466000844,366.8546466000844,366.8546466000844,366.8546466000844,366.8546466000844,367.8382000999991,367.8382000999991,x,1,0.3121821000240743,None,pulkit,001,2023-10-11_17h55.19.653,psychopy project 4,2023.1.3,59.98667093005914,
-150,z,random,,0,0,0,0,35,2,142,3,,,,,368.17164360010065,369.17220399994403,369.17220399994403,369.17220399994403,369.17220399994403,369.17220399994403,370.1724223000929,370.1724223000929,z,1,0.37272079987451434,None,pulkit,001,2023-10-11_17h55.19.653,psychopy project 4,2023.1.3,59.98667093005914,
150,v,random,,0,0,0,0,35,3,143,1,,,,,370.57256050012074,371.55615180009045,371.55615180009045,371.55615180009045,371.55615180009045,371.5730872999411,372.5566283999942,372.5566283999942,v,1,0.391522099962458,None,pulkit,001,2023-10-11_17h55.19.653,psychopy project 4,2023.1.3,59.98667093005914,
150,v,random,,0,0,0,0,36,0,144,1,,,,,372.9736367999576,373.97413709992543,373.97413709992543,373.97413709992543,373.97413709992543,373.97413709992543,374.97433810005896,374.97433810005896,v,1,0.44436069997027516,None,pulkit,001,2023-10-11_17h55.19.653,psychopy project 4,2023.1.3,59.98667093005914,
-150,z,random,,0,0,0,0,36,1,145,3,,,,,375.44233569991775,376.4413161999546,376.4413161999546,376.4413161999546,376.4413161999546,376.4413161999546,377.4420022999402,377.4420022999402,z,1,0.30975289992056787,None,pulkit,001,2023-10-11_17h55.19.653,psychopy project 4,2023.1.3,59.98667093005914,
50,c,random,,0,0,0,0,36,2,146,2,,,,,377.77519130008295,378.7588945000898,378.7588945000898,378.7588945000898,378.7588945000898,378.7758734000381,379.75925339991227,379.75925339991227,c,1,0.3178912000730634,None,pulkit,001,2023-10-11_17h55.19.653,psychopy project 4,2023.1.3,59.98667093005914,
-50,x,random,,0,0,0,0,36,3,147,0,,,,,380.1093202000484,381.10988430003636,381.10988430003636,381.10988430003636,381.10988430003636,381.10988430003636,382.093566800002,382.093566800002,x,1,0.42991549987345934,None,pulkit,001,2023-10-11_17h55.19.653,psychopy project 4,2023.1.3,59.98667093005914,
-150,z,random,,0,0,0,0,37,0,148,3,,,,,382.54386770003475,383.5440992000513,383.5440992000513,383.5440992000513,383.5440992000513,383.5440992000513,384.5280387001112,384.5280387001112,z,1,0.48810580000281334,None,pulkit,001,2023-10-11_17h55.19.653,psychopy project 4,2023.1.3,59.98667093005914,
150,v,random,,0,0,0,0,37,1,149,1,,,,,385.04471400007606,386.045090300031,386.045090300031,386.045090300031,386.045090300031,386.045090300031,387.04562489991076,387.04562489991076,v,1,0.30989430006593466,None,pulkit,001,2023-10-11_17h55.19.653,psychopy project 4,2023.1.3,59.98667093005914,
-50,x,random,,0,0,0,0,37,2,150,0,,,,,387.3788213999942,388.37934860005043,388.37934860005043,388.37934860005043,388.37934860005043,388.37934860005043,389.36278750002384,389.36278750002384,x,1,0.3995642000809312,None,pulkit,001,2023-10-11_17h55.19.653,psychopy project 4,2023.1.3,59.98667093005914,
50,c,random,,0,0,0,0,37,3,151,2,,,,,389.7797688001301,390.7802556999959,390.7802556999959,390.7802556999959,390.7802556999959,390.7802556999959,391.7636867999099,391.7636867999099,c,1,0.41876620007678866,None,pulkit,001,2023-10-11_17h55.19.653,psychopy project 4,2023.1.3,59.98667093005914,
50,c,random,,0,0,0,0,38,0,152,2,,,,,392.2140569000039,393.2144291000441,393.2144291000441,393.2144291000441,393.2144291000441,393.2144291000441,394.21478409995325,394.21478409995325,c,1,0.5710805000271648,None,pulkit,001,2023-10-11_17h55.19.653,psychopy project 4,2023.1.3,59.98667093005914,
150,v,random,,0,0,0,0,38,1,153,1,,,,,394.81523429998197,395.81554410001263,395.81554410001263,395.81554410001263,395.81554410001263,395.81554410001263,396.8159815999679,396.8159815999679,v,1,0.47912669996730983,None,pulkit,001,2023-10-11_17h55.19.653,psychopy project 4,2023.1.3,59.98667093005914,
-50,x,random,,0,0,0,0,38,2,154,0,,,,,397.31611269991845,398.31636480009183,398.31636480009183,398.31636480009183,398.31636480009183,398.31636480009183,399.31661410001107,399.31661410001107,x,1,0.4017827999778092,None,pulkit,001,2023-10-11_17h55.19.653,psychopy project 4,2023.1.3,59.98667093005914,
-150,z,random,,0,0,0,0,38,3,155,3,,,,,399.75053440011106,400.75088730012067,400.75088730012067,400.75088730012067,400.75088730012067,400.75088730012067,401.7514629000798,401.7514629000798,z,1,0.32707139989361167,None,pulkit,001,2023-10-11_17h55.19.653,psychopy project 4,2023.1.3,59.98667093005914,
-150,z,random,,0,0,0,0,39,0,156,3,,,,,402.1011141000781,403.0851358000655,403.0851358000655,403.0851358000655,403.0851358000655,403.10182139999233,404.0852399999276,404.0852399999276,z,1,0.44961009989492595,None,pulkit,001,2023-10-11_17h55.19.653,psychopy project 4,2023.1.3,59.98667093005914,
150,v,random,,0,0,0,0,39,1,157,1,,,,,404.5520426000003,405.5525255999528,405.5525255999528,405.5525255999528,405.5525255999528,405.5525255999528,406.55292259994894,406.55292259994894,v,1,0.3902786001563072,None,pulkit,001,2023-10-11_17h55.19.653,psychopy project 4,2023.1.3,59.98667093005914,
50,c,random,,0,0,0,0,39,2,158,2,,,,,406.9695848999545,407.97020029998384,407.97020029998384,407.97020029998384,407.97020029998384,407.97020029998384,408.9538215000648,408.9538215000648,c,1,0.4633160000666976,None,pulkit,001,2023-10-11_17h55.19.653,psychopy project 4,2023.1.3,59.98667093005914,
-50,x,random,,0,0,0,0,39,3,159,0,,,,,409.4374369001016,410.43775729998015,410.43775729998015,410.43775729998015,410.43775729998015,410.43775729998015,411.4215208000969,411.4215208000969,x,1,0.37968259979970753,None,pulkit,001,2023-10-11_17h55.19.653,psychopy project 4,2023.1.3,59.98667093005914,
-150,z,random,,0,0,0,0,40,0,160,3,,,,,411.8216409001034,412.82249859999865,412.82249859999865,412.82249859999865,412.82249859999865,412.82249859999865,413.82235840009525,413.82235840009525,z,1,0.3369603001046926,None,pulkit,001,2023-10-11_17h55.19.653,psychopy project 4,2023.1.3,59.98667093005914,
50,c,random,,0,0,0,0,40,1,161,2,,,,,414.1891993000172,415.18957039993256,415.18957039993256,415.18957039993256,415.18957039993256,415.18957039993256,416.18983460008167,416.18983460008167,c,1,0.5804995000362396,None,pulkit,001,2023-10-11_17h55.19.653,psychopy project 4,2023.1.3,59.98667093005914,
-50,x,random,,0,0,0,0,40,2,162,0,,,,,416.7900284000207,417.79074229998514,417.79074229998514,417.79074229998514,417.79074229998514,417.79074229998514,418.77429839991964,418.77429839991964,x,1,0.3316760000307113,None,pulkit,001,2023-10-11_17h55.19.653,psychopy project 4,2023.1.3,59.98667093005914,
150,v,random,,0,0,0,0,40,3,163,1,,,,,419.1244502000045,420.12457430013455,420.12457430013455,420.12457430013455,420.12457430013455,420.12457430013455,421.12533210008405,421.12533210008405,v,1,0.3545512000564486,None,pulkit,001,2023-10-11_17h55.19.653,psychopy project 4,2023.1.3,59.98667093005914,
-50,x,random,,0,0,0,0,41,0,164,0,,,,,421.5085426000878,422.4924220999237,422.4924220999237,422.4924220999237,422.4924220999237,422.5090761000756,423.4928675999399,423.4928675999399,x,1,0.4686724999919534,None,pulkit,001,2023-10-11_17h55.19.653,psychopy project 4,2023.1.3,59.98667093005914,
-150,z,random,,0,0,0,0,41,1,165,3,,,,,423.9927976001054,424.9932121001184,424.9932121001184,424.9932121001184,424.9932121001184,424.9932121001184,425.993745099986,425.993745099986,z,1,0.46494229999370873,None,pulkit,001,2023-10-11_17h55.19.653,psychopy project 4,2023.1.3,59.98667093005914,
150,v,random,,0,0,0,0,41,2,166,1,,,,,426.4771046999376,427.47738540009595,427.47738540009595,427.47738540009595,427.47738540009595,427.47738540009595,428.478123200126,428.478123200126,v,1,0.4062993999104947,None,pulkit,001,2023-10-11_17h55.19.653,psychopy project 4,2023.1.3,59.98667093005914,
50,c,random,,0,0,0,0,41,3,167,2,,,,,428.911371299997,429.91192870005034,429.91192870005034,429.91192870005034,429.91192870005034,429.91192870005034,430.8956834001001,430.8956834001001,c,1,0.3590406000148505,None,pulkit,001,2023-10-11_17h55.19.653,psychopy project 4,2023.1.3,59.98667093005914,
-150,z,random,,0,0,0,0,42,0,168,3,,,,,431.27896089991555,432.2793654000852,432.2793654000852,432.2793654000852,432.2793654000852,432.2793654000852,433.2797946999781,433.2797946999781,z,1,0.4890409999061376,None,pulkit,001,2023-10-11_17h55.19.653,psychopy project 4,2023.1.3,59.98667093005914,
50,c,random,,0,0,0,0,42,1,169,2,,,,,433.7967519001104,434.7971856999211,434.7971856999211,434.7971856999211,434.7971856999211,434.7971856999211,435.7975997000467,435.7975997000467,c,1,0.5106301000341773,None,pulkit,001,2023-10-11_17h55.19.653,psychopy project 4,2023.1.3,59.98667093005914,
-50,x,random,,0,0,0,0,42,2,170,0,,,,,436.33075660001487,437.3315147999674,437.3315147999674,437.3315147999674,437.3315147999674,437.3315147999674,438.3150663000997,438.3150663000997,x,1,0.4558981000445783,None,pulkit,001,2023-10-11_17h55.19.653,psychopy project 4,2023.1.3,59.98667093005914,
150,v,random,,0,0,0,0,42,3,171,1,,,,,438.79856260004453,439.79903990007006,439.79903990007006,439.79903990007006,439.79903990007006,439.79903990007006,440.7826457999181,440.7826457999181,v,1,0.45529079996049404,None,pulkit,001,2023-10-11_17h55.19.653,psychopy project 4,2023.1.3,59.98667093005914,
-50,x,random,,0,0,0,0,43,0,172,0,,,,,441.26627820008434,442.2666195000056,442.2666195000056,442.2666195000056,442.2666195000056,442.2666195000056,443.26685440004803,443.26685440004803,x,1,0.7212561999913305,None,pulkit,001,2023-10-11_17h55.19.653,psychopy project 4,2023.1.3,59.98667093005914,
-150,z,random,,0,0,0,0,43,1,173,3,,,,,444.01721450011246,445.01747640012763,445.01747640012763,445.01747640012763,445.01747640012763,445.01747640012763,446.0181293000933,446.0181293000933,z,1,0.5672611999325454,None,pulkit,001,2023-10-11_17h55.19.653,psychopy project 4,2023.1.3,59.98667093005914,
150,v,random,,0,0,0,0,43,2,174,1,,,,,446.6180696999654,447.6186319999397,447.6186319999397,447.6186319999397,447.6186319999397,447.6186319999397,448.61904400005005,448.61904400005005,v,1,0.45541139994747937,None,pulkit,001,2023-10-11_17h55.19.653,psychopy project 4,2023.1.3,59.98667093005914,
50,c,random,,0,0,0,0,43,3,175,2,,,,,449.10259389993735,450.1028770999983,450.1028770999983,450.1028770999983,450.1028770999983,450.1028770999983,451.10344610014,451.10344610014,c,1,0.49469990003854036,None,pulkit,001,2023-10-11_17h55.19.653,psychopy project 4,2023.1.3,59.98667093005914,
150,v,random,,0,0,0,0,44,0,176,1,,,,,451.62018480012193,452.62064910004847,452.62064910004847,452.62064910004847,452.62064910004847,452.62064910004847,453.6209331001155,453.6209331001155,v,1,0.6339866002090275,None,pulkit,001,2023-10-11_17h55.19.653,psychopy project 4,2023.1.3,59.98667093005914,
-50,x,random,,0,0,0,0,44,1,177,0,,,,,454.2875691000372,455.288165200036,455.288165200036,455.288165200036,455.288165200036,455.288165200036,456.27204910013825,456.27204910013825,x,1,0.5716750998981297,None,pulkit,001,2023-10-11_17h55.19.653,psychopy project 4,2023.1.3,59.98667093005914,
-150,z,random,,0,0,0,0,44,2,178,3,,,,,456.8719895000104,457.8724798001349,457.8724798001349,457.8724798001349,457.8724798001349,457.8724798001349,458.8563218000345,458.8563218000345,z,1,0.5323689999058843,None,pulkit,001,2023-10-11_17h55.19.653,psychopy project 4,2023.1.3,59.98667093005914,
50,c,random,,0,0,0,0,44,3,179,2,,,,,459.4062628999818,460.38991619995795,460.38991619995795,460.38991619995795,460.38991619995795,460.40686800004914,461.3902789000422,461.3902789000422,c,1,0.5898965999949723,None,pulkit,001,2023-10-11_17h55.19.653,psychopy project 4,2023.1.3,59.98667093005914,
-150,z,random,,0,0,0,0,45,0,180,3,,,,,462.0073816999793,463.0077220001258,463.0077220001258,463.0077220001258,463.0077220001258,463.0077220001258,464.00807520002127,464.00807520002127,z,1,0.6102118000853807,None,pulkit,001,2023-10-11_17h55.19.653,psychopy project 4,2023.1.3,59.98667093005914,
-50,x,random,,0,0,0,0,45,1,181,0,,,,,464.6413632000331,465.64207220007665,465.64207220007665,465.64207220007665,465.64207220007665,465.64207220007665,466.6258469999302,466.6258469999302,x,1,0.3954457000363618,None,pulkit,001,2023-10-11_17h55.19.653,psychopy project 4,2023.1.3,59.98667093005914,
150,v,random,,0,0,0,0,45,2,182,1,,,,,467.0426709000021,468.04279950005,468.04279950005,468.04279950005,468.04279950005,468.04279950005,469.04345250013284,469.04345250013284,v,1,0.3449986001942307,None,pulkit,001,2023-10-11_17h55.19.653,psychopy project 4,2023.1.3,59.98667093005914,
50,c,random,,0,0,0,0,45,3,183,2,,,,,469.4102904999163,470.4104500000831,470.4104500000831,470.4104500000831,470.4104500000831,470.4104500000831,471.4108333999757,471.4108333999757,c,1,0.4498741999268532,None,pulkit,001,2023-10-11_17h55.19.653,psychopy project 4,2023.1.3,59.98667093005914,
150,v,random,,0,0,0,0,46,0,184,1,,,,,471.87787199998274,472.8781974001322,472.8781974001322,472.8781974001322,472.8781974001322,472.8781974001322,473.87855469994247,473.87855469994247,v,1,0.4853877001442015,None,pulkit,001,2023-10-11_17h55.19.653,psychopy project 4,2023.1.3,59.98667093005914,
-150,z,random,,0,0,0,0,46,1,185,3,,,,,474.3954674000852,475.3956931999419,475.3956931999419,475.3956931999419,475.3956931999419,475.3956931999419,476.39600670011714,476.39600670011714,z,1,0.34763810015283525,None,pulkit,001,2023-10-11_17h55.19.653,psychopy project 4,2023.1.3,59.98667093005914,
50,c,random,,0,0,0,0,46,2,186,2,,,,,476.7631032001227,477.7466591000557,477.7466591000557,477.7466591000557,477.7466591000557,477.76337860012427,478.7468368001282,478.7468368001282,c,1,0.3759826000314206,None,pulkit,001,2023-10-11_17h55.19.653,psychopy project 4,2023.1.3,59.98667093005914,
-50,x,random,,0,0,0,0,46,3,187,0,,,,,479.14709899993613,480.14760480006225,480.14760480006225,480.14760480006225,480.14760480006225,480.14760480006225,481.14801020012237,481.14801020012237,x,1,0.3452258000615984,None,pulkit,001,2023-10-11_17h55.19.653,psychopy project 4,2023.1.3,59.98667093005914,
-150,z,random,,0,0,0,0,47,0,188,3,,,,,481.5148062000517,482.51529309991747,482.51529309991747,482.51529309991747,482.51529309991747,482.51529309991747,483.5155336000025,483.5155336000025,z,1,0.37873589992523193,None,pulkit,001,2023-10-11_17h55.19.653,psychopy project 4,2023.1.3,59.98667093005914,
150,v,random,,0,0,0,0,47,1,189,1,,,,,483.9156231000088,484.8993804999627,484.8993804999627,484.8993804999627,484.8993804999627,484.9163136999123,485.89953080005944,485.89953080005944,v,1,0.34103269991464913,None,pulkit,001,2023-10-11_17h55.19.653,psychopy project 4,2023.1.3,59.98667093005914,
50,c,random,,0,0,0,0,47,2,190,2,,,,,486.2666986999102,487.2668455000967,487.2668455000967,487.2668455000967,487.2668455000967,487.2668455000967,488.2672413000837,488.2672413000837,c,1,0.30893939989618957,None,pulkit,001,2023-10-11_17h55.19.653,psychopy project 4,2023.1.3,59.98667093005914,
-50,x,random,,0,0,0,0,47,3,191,0,,,,,488.6006229999475,489.60101899993606,489.60101899993606,489.60101899993606,489.60101899993606,489.60101899993606,490.60141819994897,490.60141819994897,x,1,0.3270917001646012,None,pulkit,001,2023-10-11_17h55.19.653,psychopy project 4,2023.1.3,59.98667093005914,
-50,x,random,,0,0,0,0,48,0,192,0,,,,,490.9516404001042,491.9521317000035,491.9521317000035,491.9521317000035,491.9521317000035,491.9521317000035,492.93602739996277,492.93602739996277,c,0,0.4513757999520749,None,pulkit,001,2023-10-11_17h55.19.653,psychopy project 4,2023.1.3,59.98667093005914,
150,v,random,,0,0,0,0,48,1,193,1,,,,,493.4192071999423,494.40313140000217,494.40313140000217,494.40313140000217,494.40313140000217,494.41983800008893,495.40321679995395,495.40321679995395,v,1,0.46190010011196136,None,pulkit,001,2023-10-11_17h55.19.653,psychopy project 4,2023.1.3,59.98667093005914,
-150,z,random,,0,0,0,0,48,2,194,3,,,,,495.88685110001825,496.88715560012497,496.88715560012497,496.88715560012497,496.88715560012497,496.88715560012497,497.8875951000955,497.8875951000955,z,1,0.423685000045225,None,pulkit,001,2023-10-11_17h55.19.653,psychopy project 4,2023.1.3,59.98667093005914,
50,c,random,,0,0,0,0,48,3,195,2,,,,,498.33768999995664,499.33811739995144,499.33811739995144,499.33811739995144,499.33811739995144,499.33811739995144,500.33847760013305,500.33847760013305,c,1,0.4353583001065999,None,pulkit,001,2023-10-11_17h55.19.653,psychopy project 4,2023.1.3,59.98667093005914,
150,v,random,,0,0,0,0,49,0,196,1,,,,,500.8053119999822,501.78947790013626,501.78947790013626,501.78947790013626,501.78947790013626,501.80585170001723,502.78951169992797,502.78951169992797,v,1,0.48052099999040365,None,pulkit,001,2023-10-11_17h55.19.653,psychopy project 4,2023.1.3,59.98667093005914,
-150,z,random,,0,0,0,0,49,1,197,3,,,,,503.2897572000511,504.27337820013054,504.27337820013054,504.27337820013054,504.27337820013054,504.2900165000465,505.2738187001087,505.2738187001087,z,1,0.4793449998833239,None,pulkit,001,2023-10-11_17h55.19.653,psychopy project 4,2023.1.3,59.98667093005914,
-50,x,random,,0,0,0,0,49,2,198,0,,,,,505.7738787000999,506.77449320000596,506.77449320000596,506.77449320000596,506.77449320000596,506.77449320000596,507.7747190000955,507.7747190000955,x,1,0.48879149998538196,None,pulkit,001,2023-10-11_17h55.19.653,psychopy project 4,2023.1.3,59.98667093005914,
50,c,random,,0,0,0,0,49,3,199,2,,,,,508.2916340001393,509.2921530001331,509.2921530001331,509.2921530001331,509.2921530001331,509.2921530001331,510.2924530999735,510.2924530999735,c,1,0.4924618999939412,None,pulkit,001,2023-10-11_17h55.19.653,psychopy project 4,2023.1.3,59.98667093005914,
-50,x,,seq,0,0,0,0,,,,,0,0,0,0,510.8089223999996,511.7929223999381,511.7929223999381,511.7929223999381,511.7929223999381,511.80951260006987,512.7933839999605,512.7933839999605,x,1,0.5532297999598086,None,pulkit,001,2023-10-11_17h55.19.653,psychopy project 4,2023.1.3,59.98667093005914,
150,v,,seq,0,0,0,0,,,,,0,1,1,1,513.3767393999733,514.3774993000552,514.3774993000552,514.3774993000552,514.3774993000552,514.3774993000552,515.3774202999193,515.3774202999193,v,1,0.47210799995809793,None,pulkit,001,2023-10-11_17h55.19.653,psychopy project 4,2023.1.3,59.98667093005914,
50,c,,seq,0,0,0,0,,,,,0,2,2,2,515.8776744999923,516.8613626000006,516.8613626000006,516.8613626000006,516.8613626000006,516.8783072000369,517.8619703000877,517.8619703000877,c,1,0.4450044999830425,None,pulkit,001,2023-10-11_17h55.19.653,psychopy project 4,2023.1.3,59.98667093005914,
-150,z,,seq,0,0,0,0,,,,,0,3,3,3,518.3289046001155,519.3292670999654,519.3292670999654,519.3292670999654,519.3292670999654,519.3292670999654,520.3293437999673,520.3293437999673,z,1,0.45805269991979003,None,pulkit,001,2023-10-11_17h55.19.653,psychopy project 4,2023.1.3,59.98667093005914,
-50,x,,seq,0,0,0,0,,,,,1,0,4,0,520.8129567999858,521.7967946999706,521.7967946999706,521.7967946999706,521.7967946999706,521.813590799924,522.7972289000172,522.7972289000172,x,1,0.5572766000404954,None,pulkit,001,2023-10-11_17h55.19.653,psychopy project 4,2023.1.3,59.98667093005914,
150,v,,seq,0,0,0,0,,,,,1,1,5,1,523.3808059999719,524.3812067001127,524.3812067001127,524.3812067001127,524.3812067001127,524.3812067001127,525.3813702000771,525.3813702000771,v,1,0.49978499999269843,None,pulkit,001,2023-10-11_17h55.19.653,psychopy project 4,2023.1.3,59.98667093005914,
50,c,,seq,0,0,0,0,,,,,1,2,6,2,525.8981314001139,526.8989478999283,526.8989478999283,526.8989478999283,526.8989478999283,526.8989478999283,527.8990484001115,527.8990484001115,c,1,0.372893099905923,None,pulkit,001,2023-10-11_17h55.19.653,psychopy project 4,2023.1.3,59.98667093005914,
-150,z,,seq,0,0,0,0,,,,,1,3,7,3,528.2992740001064,529.2998335000593,529.2998335000593,529.2998335000593,529.2998335000593,529.2998335000593,530.2999114000704,530.2999114000704,z,1,0.4864795000758022,None,pulkit,001,2023-10-11_17h55.19.653,psychopy project 4,2023.1.3,59.98667093005914,
-50,x,,seq,0,0,0,0,,,,,2,0,8,0,530.8166245000903,531.8171800000127,531.8171800000127,531.8171800000127,531.8171800000127,531.8171800000127,532.8011104001198,532.8011104001198,x,1,0.39562340010888875,None,pulkit,001,2023-10-11_17h55.19.653,psychopy project 4,2023.1.3,59.98667093005914,
150,v,,seq,0,0,0,0,,,,,2,1,9,1,533.2177029999439,534.2182080000639,534.2182080000639,534.2182080000639,534.2182080000639,534.2182080000639,535.2018697999883,535.2018697999883,v,1,0.4045164999552071,None,pulkit,001,2023-10-11_17h55.19.653,psychopy project 4,2023.1.3,59.98667093005914,
50,c,,seq,0,0,0,0,,,,,2,2,10,2,535.635373499943,536.6357684999239,536.6357684999239,536.6357684999239,536.6357684999239,536.6357684999239,537.6360235000029,537.6360235000029,c,1,0.37213619984686375,None,pulkit,001,2023-10-11_17h55.19.653,psychopy project 4,2023.1.3,59.98667093005914,
-150,z,,seq,0,0,0,0,,,,,2,3,11,3,538.0361172000412,539.0364975000266,539.0364975000266,539.0364975000266,539.0364975000266,539.0364975000266,540.0204169999342,540.0204169999342,z,1,0.5644390000961721,None,pulkit,001,2023-10-11_17h55.19.653,psychopy project 4,2023.1.3,59.98667093005914,
-50,x,,seq,0,0,0,0,,,,,3,0,12,0,540.6039130000863,541.6041806999128,541.6041806999128,541.6041806999128,541.6041806999128,541.6041806999128,542.604523899965,542.604523899965,x,1,0.43641870003193617,None,pulkit,001,2023-10-11_17h55.19.653,psychopy project 4,2023.1.3,59.98667093005914,
150,v,,seq,0,0,0,0,,,,,3,1,13,1,543.071381600108,544.0719908999745,544.0719908999745,544.0719908999745,544.0719908999745,544.0719908999745,545.0721098999493,545.0721098999493,v,1,0.5373275000602007,None,pulkit,001,2023-10-11_17h55.19.653,psychopy project 4,2023.1.3,59.98667093005914,
50,c,,seq,0,0,0,0,,,,,3,2,14,2,545.6391706001014,546.6396757001057,546.6396757001057,546.6396757001057,546.6396757001057,546.6396757001057,547.6399928000756,547.6399928000756,c,1,0.35720200021751225,None,pulkit,001,2023-10-11_17h55.19.653,psychopy project 4,2023.1.3,59.98667093005914,
-150,z,,seq,0,0,0,0,,,,,3,3,15,3,548.0233436000999,549.0238503001165,549.0238503001165,549.0238503001165,549.0238503001165,549.0238503001165,550.0239430000074,550.0239430000074,z,1,0.41622529993765056,None,pulkit,001,2023-10-11_17h55.19.653,psychopy project 4,2023.1.3,59.98667093005914,
-50,x,,seq,0,0,0,0,,,,,4,0,16,0,550.4575330999214,551.4582724000793,551.4582724000793,551.4582724000793,551.4582724000793,551.4582724000793,552.4418760000262,552.4418760000262,x,1,0.37548859999515116,None,pulkit,001,2023-10-11_17h55.19.653,psychopy project 4,2023.1.3,59.98667093005914,
150,v,,seq,0,0,0,0,,,,,4,1,17,1,552.8418729999103,553.8421936000232,553.8421936000232,553.8421936000232,553.8421936000232,553.8421936000232,554.8257112000138,554.8257112000138,v,1,0.3847281001508236,None,pulkit,001,2023-10-11_17h55.19.653,psychopy project 4,2023.1.3,59.98667093005914,
50,c,,seq,0,0,0,0,,,,,4,2,18,2,555.2427930000704,556.2434449999128,556.2434449999128,556.2434449999128,556.2434449999128,556.2434449999128,557.226649499964,557.226649499964,c,1,0.4120086000766605,None,pulkit,001,2023-10-11_17h55.19.653,psychopy project 4,2023.1.3,59.98667093005914,
-150,z,,seq,0,0,0,0,,,,,4,3,19,3,557.6601822001394,558.660684700124,558.660684700124,558.660684700124,558.660684700124,558.660684700124,559.6444761999883,559.6444761999883,z,1,0.3880763000342995,None,pulkit,001,2023-10-11_17h55.19.653,psychopy project 4,2023.1.3,59.98667093005914,
-50,x,,seq,0,0,0,0,,,,,5,0,20,0,560.0612874000799,561.0617136999499,561.0617136999499,561.0617136999499,561.0617136999499,561.0617136999499,562.0618509000633,562.0618509000633,x,1,0.3752456000074744,None,pulkit,001,2023-10-11_17h55.19.653,psychopy project 4,2023.1.3,59.98667093005914,
150,v,,seq,0,0,0,0,,,,,5,1,21,1,562.4621959999204,563.4626879000571,563.4626879000571,563.4626879000571,563.4626879000571,563.4626879000571,564.4627666999586,564.4627666999586,v,1,0.42594999982975423,None,pulkit,001,2023-10-11_17h55.19.653,psychopy project 4,2023.1.3,59.98667093005914,
50,c,,seq,0,0,0,0,,,,,5,2,22,2,564.912920899922,565.8966423000675,565.8966423000675,565.8966423000675,565.8966423000675,565.9134047999978,566.8972776001319,566.8972776001319,c,1,0.7302745999768376,None,pulkit,001,2023-10-11_17h55.19.653,psychopy project 4,2023.1.3,59.98667093005914,
-150,z,,seq,0,0,0,0,,,,,5,3,23,3,567.647350500105,568.6478903999086,568.6478903999086,568.6478903999086,568.6478903999086,568.6478903999086,569.6312375999987,569.6312375999987,z,1,0.6010535999666899,None,pulkit,001,2023-10-11_17h55.19.653,psychopy project 4,2023.1.3,59.98667093005914,
-50,x,,seq,0,0,0,0,,,,,6,0,24,0,570.2649123000447,571.2655641001184,571.2655641001184,571.2655641001184,571.2655641001184,571.2655641001184,572.2657975999173,572.2657975999173,x,1,0.390673799905926,None,pulkit,001,2023-10-11_17h55.19.653,psychopy project 4,2023.1.3,59.98667093005914,
150,v,,seq,0,0,0,0,,,,,6,1,25,1,572.6828087000176,573.6830675001256,573.6830675001256,573.6830675001256,573.6830675001256,573.6830675001256,574.6834762999788,574.6834762999788,v,1,0.449593500001356,None,pulkit,001,2023-10-11_17h55.19.653,psychopy project 4,2023.1.3,59.98667093005914,
50,c,,seq,0,0,0,0,,,,,6,2,26,2,575.1502507000696,576.1508699001279,576.1508699001279,576.1508699001279,576.1508699001279,576.1508699001279,577.1511959999334,577.1511959999334,c,1,0.4210536000318825,None,pulkit,001,2023-10-11_17h55.19.653,psychopy project 4,2023.1.3,59.98667093005914,
-150,z,,seq,0,0,0,0,,,,,6,3,27,3,577.6013327001128,578.6017322000116,578.6017322000116,578.6017322000116,578.6017322000116,578.6017322000116,579.6022058001254,579.6022058001254,z,1,0.4838560000061989,None,pulkit,001,2023-10-11_17h55.19.653,psychopy project 4,2023.1.3,59.98667093005914,
-50,x,,seq,0,0,0,0,,,,,7,0,28,0,580.1188555001281,581.1193832000718,581.1193832000718,581.1193832000718,581.1193832000718,581.1193832000718,582.1030989999417,582.1030989999417,x,1,0.335895299911499,None,pulkit,001,2023-10-11_17h55.19.653,psychopy project 4,2023.1.3,59.98667093005914,
150,v,,seq,0,0,0,0,,,,,7,1,29,1,582.469839700032,583.4702115999535,583.4702115999535,583.4702115999535,583.4702115999535,583.4702115999535,584.4705936000682,584.4705936000682,v,1,0.6231796001084149,None,pulkit,001,2023-10-11_17h55.19.653,psychopy project 4,2023.1.3,59.98667093005914,
50,c,,seq,0,0,0,0,,,,,7,2,30,2,585.1206869999878,586.1213018000126,586.1213018000126,586.1213018000126,586.1213018000126,586.1213018000126,587.1216528001241,587.1216528001241,c,1,0.42852640012279153,None,pulkit,001,2023-10-11_17h55.19.653,psychopy project 4,2023.1.3,59.98667093005914,
-150,z,,seq,0,0,0,0,,,,,7,3,31,3,587.5716492999345,588.5722121999133,588.5722121999133,588.5722121999133,588.5722121999133,588.5722121999133,589.5726538000163,589.5726538000163,z,1,0.5382614999543875,None,pulkit,001,2023-10-11_17h55.19.653,psychopy project 4,2023.1.3,59.98667093005914,
-50,x,,seq,0,0,0,0,,,,,8,0,32,0,590.1391431000084,591.1397365999874,591.1397365999874,591.1397365999874,591.1397365999874,591.1397365999874,592.1234089999925,592.1234089999925,x,1,0.3854833000805229,None,pulkit,001,2023-10-11_17h55.19.653,psychopy project 4,2023.1.3,59.98667093005914,
150,v,,seq,0,0,0,0,,,,,8,1,33,1,592.5402943999507,593.540633900091,593.540633900091,593.540633900091,593.540633900091,593.540633900091,594.5411195000634,594.5411195000634,v,1,0.36605859990231693,None,pulkit,001,2023-10-11_17h55.19.653,psychopy project 4,2023.1.3,59.98667093005914,
50,c,,seq,0,0,0,0,,,,,8,2,34,2,594.9243529001251,595.9083688999526,595.9083688999526,595.9083688999526,595.9083688999526,595.9248828999698,596.9087040999439,596.9087040999439,c,1,0.535856599919498,None,pulkit,001,2023-10-11_17h55.19.653,psychopy project 4,2023.1.3,59.98667093005914,
-150,z,,seq,0,0,0,0,,,,,8,3,35,3,597.4754306001123,598.4758379999548,598.4758379999548,598.4758379999548,598.4758379999548,598.4758379999548,599.4763181000017,599.4763181000017,z,1,0.4250205000862479,None,pulkit,001,2023-10-11_17h55.19.653,psychopy project 4,2023.1.3,59.98667093005914,
-50,x,,seq,0,0,0,0,,,,,9,0,36,0,599.9265127000399,600.9269276999403,600.9269276999403,600.9269276999403,600.9269276999403,600.9269276999403,601.927318500122,601.927318500122,x,1,0.32976630004122853,None,pulkit,001,2023-10-11_17h55.19.653,psychopy project 4,2023.1.3,59.98667093005914,
150,v,,seq,0,0,0,0,,,,,9,1,37,1,602.2771528000012,603.277795900125,603.277795900125,603.277795900125,603.277795900125,603.277795900125,604.2613216999453,604.2613216999453,v,1,0.3540268000215292,None,pulkit,001,2023-10-11_17h55.19.653,psychopy project 4,2023.1.3,59.98667093005914,
50,c,,seq,0,0,0,0,,,,,9,2,38,2,604.6446416999679,605.6452731001191,605.6452731001191,605.6452731001191,605.6452731001191,605.6452731001191,606.628870600136,606.628870600136,c,1,0.3416393999941647,None,pulkit,001,2023-10-11_17h55.19.653,psychopy project 4,2023.1.3,59.98667093005914,
-150,z,,seq,0,0,0,0,,,,,9,3,39,3,606.9955504999962,607.9962266001385,607.9962266001385,607.9962266001385,607.9962266001385,607.9962266001385,608.9797839000821,608.9797839000821,z,1,0.4754302999936044,None,pulkit,001,2023-10-11_17h55.19.653,psychopy project 4,2023.1.3,59.98667093005914,
-50,x,,seq,0,0,0,0,,,,,10,0,40,0,609.4799311000388,610.4806005000137,610.4806005000137,610.4806005000137,610.4806005000137,610.4806005000137,611.4641762999818,611.4641762999818,x,1,0.31863419990986586,None,pulkit,001,2023-10-11_17h55.19.653,psychopy project 4,2023.1.3,59.98667093005914,
150,v,,seq,0,0,0,0,,,,,10,1,41,1,611.8143587999512,612.8148727000225,612.8148727000225,612.8148727000225,612.8148727000225,612.8148727000225,613.8149312001187,613.8149312001187,v,1,0.29654800007119775,None,pulkit,001,2023-10-11_17h55.19.653,psychopy project 4,2023.1.3,59.98667093005914,
50,c,,seq,0,0,0,0,,,,,10,2,42,2,614.1316740999464,615.1323947999626,615.1323947999626,615.1323947999626,615.1323947999626,615.1323947999626,616.1159783001058,616.1159783001058,c,1,0.27821909985505044,None,pulkit,001,2023-10-11_17h55.19.653,psychopy project 4,2023.1.3,59.98667093005914,
-150,z,,seq,0,0,0,0,,,,,10,3,43,3,616.4161418001167,617.4165825999808,617.4165825999808,617.4165825999808,617.4165825999808,617.4165825999808,618.4167774999514,618.4167774999514,z,1,0.3532986000645906,None,pulkit,001,2023-10-11_17h55.19.653,psychopy project 4,2023.1.3,59.98667093005914,
-50,x,,seq,0,0,0,0,,,,,11,0,44,0,618.8000722001307,619.8007340000477,619.8007340000477,619.8007340000477,619.8007340000477,619.8007340000477,620.8009270001203,620.8009270001203,x,1,0.30117199989035726,None,pulkit,001,2023-10-11_17h55.19.653,psychopy project 4,2023.1.3,59.98667093005914,
150,v,,seq,0,0,0,0,,,,,11,1,45,1,621.1342692000326,622.1183577000629,622.1183577000629,622.1183577000629,622.1183577000629,622.1349091001321,623.118664199952,623.118664199952,v,1,0.314606900094077,None,pulkit,001,2023-10-11_17h55.19.653,psychopy project 4,2023.1.3,59.98667093005914,
50,c,,seq,0,0,0,0,,,,,11,2,46,2,623.4520527999848,624.4524245001376,624.4524245001376,624.4524245001376,624.4524245001376,624.4524245001376,625.4528622000944,625.4528622000944,c,1,0.34583169990219176,None,pulkit,001,2023-10-11_17h55.19.653,psychopy project 4,2023.1.3,59.98667093005914,
-150,z,,seq,0,0,0,0,,,,,11,3,47,3,625.819785800064,626.8199074000586,626.8199074000586,626.8199074000586,626.8199074000586,626.8199074000586,627.8204538999125,627.8204538999125,z,1,0.41346090007573366,None,pulkit,001,2023-10-11_17h55.19.653,psychopy project 4,2023.1.3,59.98667093005914,
-50,x,,seq,0,0,0,0,,,,,12,0,48,0,628.2537925001234,629.2541253000963,629.2541253000963,629.2541253000963,629.2541253000963,629.2541253000963,630.2545579001307,630.2545579001307,x,1,0.4269081000238657,None,pulkit,001,2023-10-11_17h55.19.653,psychopy project 4,2023.1.3,59.98667093005914,
150,v,,seq,0,0,0,0,,,,,12,1,49,1,630.7047606001142,631.7050236000214,631.7050236000214,631.7050236000214,631.7050236000214,631.7050236000214,632.7054940001108,632.7054940001108,v,1,0.34922510012984276,None,pulkit,001,2023-10-11_17h55.19.653,psychopy project 4,2023.1.3,59.98667093005914,
50,c,,seq,0,0,0,0,,,,,12,2,50,2,633.0725141000003,634.0728519000113,634.0728519000113,634.0728519000113,634.0728519000113,634.0728519000113,635.0733549001161,635.0733549001161,c,1,0.3790742000564933,None,pulkit,001,2023-10-11_17h55.19.653,psychopy project 4,2023.1.3,59.98667093005914,
-150,z,,seq,0,0,0,0,,,,,12,3,51,3,635.4733879000414,636.4737275999505,636.4737275999505,636.4737275999505,636.4737275999505,636.4737275999505,637.4739030001219,637.4739030001219,z,1,0.3696330999955535,None,pulkit,001,2023-10-11_17h55.19.653,psychopy project 4,2023.1.3,59.98667093005914,
-50,x,,seq,0,0,0,0,,,,,13,0,52,0,637.8740324999671,638.8578610001132,638.8578610001132,638.8578610001132,638.8578610001132,638.874665300129,639.8580682000611,639.8580682000611,x,1,0.3507191000971943,None,pulkit,001,2023-10-11_17h55.19.653,psychopy project 4,2023.1.3,59.98667093005914,
150,v,,seq,0,0,0,0,,,,,13,1,53,1,640.2416832000017,641.2421683000866,641.2421683000866,641.2421683000866,641.2421683000866,641.2421683000866,642.2435220999178,642.2435220999178,v,1,0.3472742000594735,None,pulkit,001,2023-10-11_17h55.19.653,psychopy project 4,2023.1.3,59.98667093005914,
50,c,,seq,0,0,0,0,,,,,13,2,54,2,642.6092290999368,643.609706300078,643.609706300078,643.609706300078,643.609706300078,643.609706300078,644.6099819999654,644.6099819999654,c,1,0.359918599948287,None,pulkit,001,2023-10-11_17h55.19.653,psychopy project 4,2023.1.3,59.98667093005914,
-150,z,,seq,0,0,0,0,,,,,13,3,55,3,644.9936347000767,645.9939250999596,645.9939250999596,645.9939250999596,645.9939250999596,645.9939250999596,646.9944758999627,646.9944758999627,z,1,0.43884470011107624,None,pulkit,001,2023-10-11_17h55.19.653,psychopy project 4,2023.1.3,59.98667093005914,
-50,x,,seq,0,0,0,0,,,,,14,0,56,0,647.4610534000676,648.4615291999653,648.4615291999653,648.4615291999653,648.4615291999653,648.4615291999653,649.4617902999744,649.4617902999744,x,1,0.3005464000161737,None,pulkit,001,2023-10-11_17h55.19.653,psychopy project 4,2023.1.3,59.98667093005914,
150,v,,seq,0,0,0,0,,,,,14,1,57,1,649.7787468999159,650.7792740999721,650.7792740999721,650.7792740999721,650.7792740999721,650.7792740999721,651.7793765999377,651.7793765999377,v,1,0.2959362000692636,None,pulkit,001,2023-10-11_17h55.19.653,psychopy project 4,2023.1.3,59.98667093005914,
50,c,,seq,0,0,0,0,,,,,14,2,58,2,652.0963864000514,653.096630499931,653.096630499931,653.096630499931,653.096630499931,653.096630499931,654.0968887999188,654.0968887999188,c,1,0.3284457998815924,None,pulkit,001,2023-10-11_17h55.19.653,psychopy project 4,2023.1.3,59.98667093005914,
-150,z,,seq,0,0,0,0,,,,,14,3,59,3,654.4470021000598,655.4473936001305,655.4473936001305,655.4473936001305,655.4473936001305,655.4473936001305,656.4313495999668,656.4313495999668,z,1,0.3001233998220414,None,pulkit,001,2023-10-11_17h55.19.653,psychopy project 4,2023.1.3,59.98667093005914,
-50,x,,seq,0,0,0,0,,,,,15,0,60,0,656.7478585999925,657.7484798999503,657.7484798999503,657.7484798999503,657.7484798999503,657.7484798999503,658.7488005999476,658.7488005999476,x,1,0.3195195000153035,None,pulkit,001,2023-10-11_17h55.19.653,psychopy project 4,2023.1.3,59.98667093005914,
150,v,,seq,0,0,0,0,,,,,15,1,61,1,659.0987392999232,660.0993836000562,660.0993836000562,660.0993836000562,660.0993836000562,660.0993836000562,661.0997069000732,661.0997069000732,v,1,0.42048639990389347,None,pulkit,001,2023-10-11_17h55.19.653,psychopy project 4,2023.1.3,59.98667093005914,
50,c,,seq,0,0,0,0,,,,,15,2,62,2,661.5498500999529,662.550139500061,662.550139500061,662.550139500061,662.550139500061,662.550139500061,663.5507589001209,663.5507589001209,c,1,0.4209731000009924,None,pulkit,001,2023-10-11_17h55.19.653,psychopy project 4,2023.1.3,59.98667093005914,
-150,z,,seq,0,0,0,0,,,,,15,3,63,3,664.0007355001289,665.0012006999459,665.0012006999459,665.0012006999459,665.0012006999459,665.0012006999459,665.9847087000962,665.9847087000962,z,1,0.46634349995292723,None,pulkit,001,2023-10-11_17h55.19.653,psychopy project 4,2023.1.3,59.98667093005914,
-50,x,,seq,0,0,0,0,,,,,16,0,64,0,666.4680854000617,667.4688250001054,667.4688250001054,667.4688250001054,667.4688250001054,667.4688250001054,668.4688883000053,668.4688883000053,x,1,0.33272050018422306,None,pulkit,001,2023-10-11_17h55.19.653,psychopy project 4,2023.1.3,59.98667093005914,
150,v,,seq,0,0,0,0,,,,,16,1,65,1,668.8193491001148,669.8195239000488,669.8195239000488,669.8195239000488,669.8195239000488,669.8195239000488,670.8198853000067,670.8198853000067,v,1,0.3775932998396456,None,pulkit,001,2023-10-11_17h55.19.653,psychopy project 4,2023.1.3,59.98667093005914,
50,c,,seq,0,0,0,0,,,,,16,2,66,2,671.219946899917,672.2206910999957,672.2206910999957,672.2206910999957,672.2206910999957,672.2206910999957,673.2208324000239,673.2208324000239,c,1,0.3234914999920875,None,pulkit,001,2023-10-11_17h55.19.653,psychopy project 4,2023.1.3,59.98667093005914,
-150,z,,seq,0,0,0,0,,,,,16,3,67,3,673.5708550000563,674.5716345000546,674.5716345000546,674.5716345000546,674.5716345000546,674.5716345000546,675.5551110000815,675.5551110000815,z,1,0.2905721999704838,None,pulkit,001,2023-10-11_17h55.19.653,psychopy project 4,2023.1.3,59.98667093005914,
-50,x,,seq,0,0,0,0,,,,,17,0,68,0,675.871691999957,676.8720857999288,676.8720857999288,676.8720857999288,676.8720857999288,676.8720857999288,677.8727587000467,677.8727587000467,x,1,0.2663823999464512,None,pulkit,001,2023-10-11_17h55.19.653,psychopy project 4,2023.1.3,59.98667093005914,
150,v,,seq,0,0,0,0,,,,,17,1,69,1,678.1564619001001,679.1564992999192,679.1564992999192,679.1564992999192,679.1564992999192,679.1564992999192,680.1569741999265,680.1569741999265,v,1,0.4113489999435842,None,pulkit,001,2023-10-11_17h55.19.653,psychopy project 4,2023.1.3,59.98667093005914,
50,c,,seq,0,0,0,0,,,,,17,2,70,2,680.5904987000395,681.590832100017,681.590832100017,681.590832100017,681.590832100017,681.590832100017,682.591377899982,682.591377899982,c,1,0.3396902000531554,None,pulkit,001,2023-10-11_17h55.19.653,psychopy project 4,2023.1.3,59.98667093005914,
-150,z,,seq,0,0,0,0,,,,,17,3,71,3,682.9577987000812,683.958299400052,683.958299400052,683.958299400052,683.958299400052,683.958299400052,684.9586982999463,684.9586982999463,z,1,0.47451990004628897,None,pulkit,001,2023-10-11_17h55.19.653,psychopy project 4,2023.1.3,59.98667093005914,
-50,x,,seq,0,0,0,0,,,,,18,0,72,0,685.4587753999513,686.4594970000908,686.4594970000908,686.4594970000908,686.4594970000908,686.4594970000908,687.4429663999472,687.4429663999472,x,1,0.32108139991760254,None,pulkit,001,2023-10-11_17h55.19.653,psychopy project 4,2023.1.3,59.98667093005914,
150,v,,seq,0,0,0,0,,,,,18,1,73,1,687.7932988000102,688.7935826000758,688.7935826000758,688.7935826000758,688.7935826000758,688.7935826000758,689.7940378999338,689.7940378999338,v,1,0.5363836998585612,None,pulkit,001,2023-10-11_17h55.19.653,psychopy project 4,2023.1.3,59.98667093005914,
50,c,,seq,0,0,0,0,,,,,18,2,74,2,690.3606781000271,691.3612858999986,691.3612858999986,691.3612858999986,691.3612858999986,691.3612858999986,692.3617589001078,692.3617589001078,c,1,0.49432569998316467,None,pulkit,001,2023-10-11_17h55.19.653,psychopy project 4,2023.1.3,59.98667093005914,
-150,z,,seq,0,0,0,0,,,,,18,3,75,3,692.8783811000176,693.8786546001211,693.8786546001211,693.8786546001211,693.8786546001211,693.8786546001211,694.8791652000509,694.8791652000509,z,1,0.4417992001399398,None,pulkit,001,2023-10-11_17h55.19.653,psychopy project 4,2023.1.3,59.98667093005914,
-50,x,,seq,0,0,0,0,,,,,19,0,76,0,695.3458899999969,696.3295794001315,696.3295794001315,696.3295794001315,696.3295794001315,696.3463985999115,697.3301814000588,697.3301814000588,x,1,0.33291470003314316,None,pulkit,001,2023-10-11_17h55.19.653,psychopy project 4,2023.1.3,59.98667093005914,
150,v,,seq,0,0,0,0,,,,,19,1,77,1,697.6799300001003,698.680643599946,698.680643599946,698.680643599946,698.680643599946,698.680643599946,699.6655918001197,699.6655918001197,v,1,0.6616723001934588,None,pulkit,001,2023-10-11_17h55.19.653,psychopy project 4,2023.1.3,59.98667093005914,
50,c,,seq,0,0,0,0,,,,,19,2,78,2,700.3477616000455,701.3481672999915,701.3481672999915,701.3481672999915,701.3481672999915,701.3481672999915,702.3320266001392,702.3320266001392,c,1,0.3534506999421865,None,pulkit,001,2023-10-11_17h55.19.653,psychopy project 4,2023.1.3,59.98667093005914,
-150,z,,seq,0,0,0,0,,,,,19,3,79,3,702.7155792999547,703.7160028999206,703.7160028999206,703.7160028999206,703.7160028999206,703.7160028999206,704.7162142000161,704.7162142000161,z,1,0.4025394001509994,None,pulkit,001,2023-10-11_17h55.19.653,psychopy project 4,2023.1.3,59.98667093005914,
-50,x,,seq,0,0,0,0,,,,,20,0,80,0,705.1498942999169,706.1502517000772,706.1502517000772,706.1502517000772,706.1502517000772,706.1502517000772,707.1504335999489,707.1504335999489,x,1,0.41902030003257096,None,pulkit,001,2023-10-11_17h55.19.653,psychopy project 4,2023.1.3,59.98667093005914,
150,v,,seq,0,0,0,0,,,,,20,1,81,1,707.6007046001032,708.6010819000658,708.6010819000658,708.6010819000658,708.6010819000658,708.6010819000658,709.6014151999261,709.6014151999261,v,1,0.2993875998072326,None,pulkit,001,2023-10-11_17h55.19.653,psychopy project 4,2023.1.3,59.98667093005914,
50,c,,seq,0,0,0,0,,,,,20,2,82,2,709.9180916999467,710.9187380000949,710.9187380000949,710.9187380000949,710.9187380000949,710.9187380000949,711.9192345999181,711.9192345999181,c,1,0.40083050006069243,None,pulkit,001,2023-10-11_17h55.19.653,psychopy project 4,2023.1.3,59.98667093005914,
-150,z,,seq,0,0,0,0,,,,,20,3,83,3,712.352666300023,713.3529387000017,713.3529387000017,713.3529387000017,713.3529387000017,713.3529387000017,714.3533193001058,714.3533193001058,z,1,0.3789544999599457,None,pulkit,001,2023-10-11_17h55.19.653,psychopy project 4,2023.1.3,59.98667093005914,
-50,x,,seq,0,0,0,0,,,,,21,0,84,0,714.7532108000014,715.7370915999636,715.7370915999636,715.7370915999636,715.7370915999636,715.7538737999275,716.7373818999622,716.7373818999622,x,1,0.2754424000158906,None,pulkit,001,2023-10-11_17h55.19.653,psychopy project 4,2023.1.3,59.98667093005914,
150,v,,seq,0,0,0,0,,,,,21,1,85,1,717.0377035001293,718.0378112001345,718.0378112001345,718.0378112001345,718.0378112001345,718.0378112001345,719.0383711999748,719.0383711999748,v,1,0.30195009987801313,None,pulkit,001,2023-10-11_17h55.19.653,psychopy project 4,2023.1.3,59.98667093005914,
50,c,,seq,0,0,0,0,,,,,21,2,86,2,719.371619099984,720.3556176999118,720.3556176999118,720.3556176999118,720.3556176999118,720.3723089999985,721.3559777999762,721.3559777999762,c,1,0.32448119996115565,None,pulkit,001,2023-10-11_17h55.19.653,psychopy project 4,2023.1.3,59.98667093005914,
-150,z,,seq,0,0,0,0,,,,,21,3,87,3,721.7059091001283,722.6898461000528,722.6898461000528,722.6898461000528,722.6898461000528,722.706621899968,723.690078600077,723.690078600077,z,1,0.5691048000007868,None,pulkit,001,2023-10-11_17h55.19.653,psychopy project 4,2023.1.3,59.98667093005914,
-50,x,,seq,0,0,0,0,,,,,22,0,88,0,724.2900773000438,725.2907068999484,725.2907068999484,725.2907068999484,725.2907068999484,725.2907068999484,726.2909130000044,726.2909130000044,x,1,0.3178731999360025,None,pulkit,001,2023-10-11_17h55.19.653,psychopy project 4,2023.1.3,59.98667093005914,
150,v,,seq,0,0,0,0,,,,,22,1,89,1,726.6411755001172,727.6415442000143,727.6415442000143,727.6415442000143,727.6415442000143,727.6415442000143,728.6417241001036,728.6417241001036,v,1,0.4742846000008285,None,pulkit,001,2023-10-11_17h55.19.653,psychopy project 4,2023.1.3,59.98667093005914,
50,c,,seq,0,0,0,0,,,,,22,2,90,2,729.1419937999453,730.1424157000147,730.1424157000147,730.1424157000147,730.1424157000147,730.1424157000147,731.1427565999329,731.1427565999329,c,1,0.3973103000316769,None,pulkit,001,2023-10-11_17h55.19.653,psychopy project 4,2023.1.3,59.98667093005914,
-150,z,,seq,0,0,0,0,,,,,22,3,91,3,731.5597556999419,732.5601965000387,732.5601965000387,732.5601965000387,732.5601965000387,732.5601965000387,733.5603950000368,733.5603950000368,z,1,0.433981099864468,None,pulkit,001,2023-10-11_17h55.19.653,psychopy project 4,2023.1.3,59.98667093005914,
-50,x,,seq,0,0,0,0,,,,,23,0,92,0,734.0106796000618,735.0111867999658,735.0111867999658,735.0111867999658,735.0111867999658,735.0111867999658,736.0117071000859,736.0117071000859,x,1,0.36909659998491406,None,pulkit,001,2023-10-11_17h55.19.653,psychopy project 4,2023.1.3,59.98667093005914,
150,v,,seq,0,0,0,0,,,,,23,1,93,1,736.4117308000568,737.4120028999168,737.4120028999168,737.4120028999168,737.4120028999168,737.4120028999168,738.4124861001037,738.4124861001037,v,1,0.4363053000997752,None,pulkit,001,2023-10-11_17h55.19.653,psychopy project 4,2023.1.3,59.98667093005914,
50,c,,seq,0,0,0,0,,,,,23,2,94,2,738.8791211999487,739.8796894999687,739.8796894999687,739.8796894999687,739.8796894999687,739.8796894999687,740.8633286999539,740.8633286999539,c,1,0.3326101000420749,None,pulkit,001,2023-10-11_17h55.19.653,psychopy project 4,2023.1.3,59.98667093005914,
-150,z,,seq,0,0,0,0,,,,,23,3,95,3,741.2134662999306,742.2139328001067,742.2139328001067,742.2139328001067,742.2139328001067,742.2139328001067,743.21420580009,743.21420580009,z,1,0.7715251001063734,None,pulkit,001,2023-10-11_17h55.19.653,psychopy project 4,2023.1.3,59.98667093005914,
-50,x,,seq,0,0,0,0,,,,,24,0,96,0,744.0143436000217,744.9981939001009,744.9981939001009,744.9981939001009,744.9981939001009,745.0150444000028,745.9986338000745,745.9986338000745,x,1,0.36700500012375414,None,pulkit,001,2023-10-11_17h55.19.653,psychopy project 4,2023.1.3,59.98667093005914,
150,v,,seq,0,0,0,0,,,,,24,1,97,1,746.3819891000167,747.3825832000002,747.3825832000002,747.3825832000002,747.3825832000002,747.3825832000002,748.3829626000952,748.3829626000952,v,1,0.4438420000951737,None,pulkit,001,2023-10-11_17h55.19.653,psychopy project 4,2023.1.3,59.98667093005914,
50,c,,seq,0,0,0,0,,,,,24,2,98,2,748.8497421999928,749.8501287999097,749.8501287999097,749.8501287999097,749.8501287999097,749.8501287999097,750.8504019000102,750.8504019000102,c,1,0.34709950000979006,None,pulkit,001,2023-10-11_17h55.19.653,psychopy project 4,2023.1.3,59.98667093005914,
-150,z,,seq,0,0,0,0,,,,,24,3,99,3,751.2171380999498,752.2178500001319,752.2178500001319,752.2178500001319,752.2178500001319,752.2178500001319,753.2011575000361,753.2011575000361,z,1,0.4047421000432223,None,pulkit,001,2023-10-11_17h55.19.653,psychopy project 4,2023.1.3,59.98667093005914,
-50,x,,seq,0,0,0,0,,,,,25,0,100,0,753.6346676000394,754.6354054999538,754.6354054999538,754.6354054999538,754.6354054999538,754.6354054999538,755.6358058999758,755.6358058999758,x,1,0.26983020012266934,None,pulkit,001,2023-10-11_17h55.19.653,psychopy project 4,2023.1.3,59.98667093005914,
150,v,,seq,0,0,0,0,,,,,25,1,101,1,755.9357012000401,756.9192508000415,756.9192508000415,756.9192508000415,756.9192508000415,756.9361097000074,757.9199192000087,757.9199192000087,v,1,0.3352224000263959,None,pulkit,001,2023-10-11_17h55.19.653,psychopy project 4,2023.1.3,59.98667093005914,
50,c,,seq,0,0,0,0,,,,,25,2,102,2,758.2866865000688,759.2869357001036,759.2869357001036,759.2869357001036,759.2869357001036,759.2869357001036,760.2873261000495,760.2873261000495,c,1,0.3328877000603825,None,pulkit,001,2023-10-11_17h55.19.653,psychopy project 4,2023.1.3,59.98667093005914,
-150,z,,seq,0,0,0,0,,,,,25,3,103,3,760.6374922001269,761.6380628999323,761.6380628999323,761.6380628999323,761.6380628999323,761.6380628999323,762.6382242001127,762.6382242001127,z,1,0.40210109995678067,None,pulkit,001,2023-10-11_17h55.19.653,psychopy project 4,2023.1.3,59.98667093005914,
-50,x,,seq,0,0,0,0,,,,,26,0,104,0,763.0718869999982,764.0720251000021,764.0720251000021,764.0720251000021,764.0720251000021,764.0720251000021,765.0725656999275,765.0725656999275,x,1,0.009573100134730339,None,pulkit,001,2023-10-11_17h55.19.653,psychopy project 4,2023.1.3,59.98667093005914,
150,v,,seq,0,0,0,0,,,,,26,1,105,1,765.105853700079,766.1061813000124,766.1061813000124,766.1061813000124,766.1061813000124,766.1061813000124,767.1065742000937,767.1065742000937,v,1,0.26112839998677373,None,pulkit,001,2023-10-11_17h55.19.653,psychopy project 4,2023.1.3,59.98667093005914,
50,c,,seq,0,0,0,0,,,,,26,2,106,2,767.3901776000857,768.3905516001396,768.3905516001396,768.3905516001396,768.3905516001396,768.3905516001396,769.3909756999929,769.3909756999929,c,1,0.41902679996564984,None,pulkit,001,2023-10-11_17h55.19.653,psychopy project 4,2023.1.3,59.98667093005914,
-150,z,,seq,0,0,0,0,,,,,26,3,107,3,769.8408305000048,770.8412536000833,770.8412536000833,770.8412536000833,770.8412536000833,770.8412536000833,771.8417513000313,771.8417513000313,x,0,0.23664760007523,None,pulkit,001,2023-10-11_17h55.19.653,psychopy project 4,2023.1.3,59.98667093005914,
-50,x,,seq,0,0,0,0,,,,,27,0,108,0,772.1085020001046,773.1088424001355,773.1088424001355,773.1088424001355,773.1088424001355,773.1088424001355,774.10906970012,774.10906970012,x,1,0.317702200030908,None,pulkit,001,2023-10-11_17h55.19.653,psychopy project 4,2023.1.3,59.98667093005914,
150,v,,seq,0,0,0,0,,,,,27,1,109,1,774.4424849001225,775.4430726000573,775.4430726000573,775.4430726000573,775.4430726000573,775.4430726000573,776.4435022999533,776.4435022999533,v,1,0.39287860016338527,None,pulkit,001,2023-10-11_17h55.19.653,psychopy project 4,2023.1.3,59.98667093005914,
50,c,,seq,0,0,0,0,,,,,27,2,110,2,776.8602265000809,777.8607449999545,777.8607449999545,777.8607449999545,777.8607449999545,777.8607449999545,778.8611024001148,778.8611024001148,c,1,0.2545175999403,None,pulkit,001,2023-10-11_17h55.19.653,psychopy project 4,2023.1.3,59.98667093005914,
-150,z,,seq,0,0,0,0,,,,,27,3,111,3,779.1446579000913,780.1448290999979,780.1448290999979,780.1448290999979,780.1448290999979,780.1448290999979,781.1451978001278,781.1451978001278,z,1,0.25602580001577735,None,pulkit,001,2023-10-11_17h55.19.653,psychopy project 4,2023.1.3,59.98667093005914,
-50,x,,seq,0,0,0,0,,,,,28,0,112,0,781.4286015999969,782.4122039000504,782.4122039000504,782.4122039000504,782.4122039000504,782.4291795999743,783.412663300056,783.412663300056,x,1,0.23021099995821714,None,pulkit,001,2023-10-11_17h55.19.653,psychopy project 4,2023.1.3,59.98667093005914,
150,v,,seq,0,0,0,0,,,,,28,1,113,1,783.662667900091,784.6467899000272,784.6467899000272,784.6467899000272,784.6467899000272,784.6633006001357,785.6468456001021,785.6468456001021,v,1,0.34317829995416105,None,pulkit,001,2023-10-11_17h55.19.653,psychopy project 4,2023.1.3,59.98667093005914,
50,c,,seq,0,0,0,0,,,,,28,2,114,2,786.0135572000872,787.0141708001029,787.0141708001029,787.0141708001029,787.0141708001029,787.0141708001029,787.9979520000052,787.9979520000052,c,1,0.2564087000209838,None,pulkit,001,2023-10-11_17h55.19.653,psychopy project 4,2023.1.3,59.98667093005914,
-150,z,,seq,0,0,0,0,,,,,28,3,115,3,788.2813538999762,789.281866400037,789.281866400037,789.281866400037,789.281866400037,789.281866400037,790.282185100019,790.282185100019,z,1,0.2474175998941064,None,pulkit,001,2023-10-11_17h55.19.653,psychopy project 4,2023.1.3,59.98667093005914,
-50,x,,seq,0,0,0,0,,,,,29,0,116,0,790.5489652000833,791.5492424000986,791.5492424000986,791.5492424000986,791.5492424000986,791.5492424000986,792.5495776999742,792.5495776999742,x,1,0.2717092998791486,None,pulkit,001,2023-10-11_17h55.19.653,psychopy project 4,2023.1.3,59.98667093005914,
150,v,,seq,0,0,0,0,,,,,29,1,117,1,792.8498146999627,793.8502649001312,793.8502649001312,793.8502649001312,793.8502649001312,793.8502649001312,794.8504524000455,794.8504524000455,v,1,0.4032329998444766,None,pulkit,001,2023-10-11_17h55.19.653,psychopy project 4,2023.1.3,59.98667093005914,
50,c,,seq,0,0,0,0,,,,,29,2,118,2,795.2838651000056,796.2677659001201,796.2677659001201,796.2677659001201,796.2677659001201,796.2843750999309,797.2678996000905,797.2678996000905,c,1,0.0204605998005718,None,pulkit,001,2023-10-11_17h55.19.653,psychopy project 4,2023.1.3,59.98667093005914,
-150,z,,seq,0,0,0,0,,,,,29,3,119,3,797.3178318000864,798.3182455000933,798.3182455000933,798.3182455000933,798.3182455000933,798.3182455000933,799.3023574999534,799.3023574999534,z,1,0.2790240999311209,None,pulkit,001,2023-10-11_17h55.19.653,psychopy project 4,2023.1.3,59.98667093005914,
-50,x,,seq,0,0,0,0,,,,,30,0,120,0,799.6024108999409,800.6027528000996,800.6027528000996,800.6027528000996,800.6027528000996,800.6027528000996,801.6027969999705,801.6027969999705,x,1,0.1598871999885887,None,pulkit,001,2023-10-11_17h55.19.653,psychopy project 4,2023.1.3,59.98667093005914,
150,v,,seq,0,0,0,0,,,,,30,1,121,1,801.786194199929,802.7701554999221,802.7701554999221,802.7701554999221,802.7701554999221,802.7870406999718,803.7704141000286,803.7704141000286,v,1,0.3276859000325203,None,pulkit,001,2023-10-11_17h55.19.653,psychopy project 4,2023.1.3,59.98667093005914,
50,c,,seq,0,0,0,0,,,,,30,2,122,2,804.1206871999893,805.1208875000011,805.1208875000011,805.1208875000011,805.1208875000011,805.1208875000011,806.1215391999576,806.1215391999576,c,1,0.23670400003902614,None,pulkit,001,2023-10-11_17h55.19.653,psychopy project 4,2023.1.3,59.98667093005914,
-150,z,,seq,0,0,0,0,,,,,30,3,123,3,806.3881270999555,807.3886629999615,807.3886629999615,807.3886629999615,807.3886629999615,807.3886629999615,808.372168000089,808.372168000089,x,0,0.24279159982688725,None,pulkit,001,2023-10-11_17h55.19.653,psychopy project 4,2023.1.3,59.98667093005914,
-50,x,,seq,0,0,0,0,,,,,31,0,124,0,808.6388757999521,809.6228128001094,809.6228128001094,809.6228128001094,809.6228128001094,809.6394952000119,810.623307300033,810.623307300033,x,1,0.23925089999102056,None,pulkit,001,2023-10-11_17h55.19.653,psychopy project 4,2023.1.3,59.98667093005914,
150,v,,seq,0,0,0,0,,,,,31,1,125,1,810.8899588999338,811.8905181000009,811.8905181000009,811.8905181000009,811.8905181000009,811.8905181000009,812.8905130999628,812.8905130999628,v,1,0.3669187999330461,None,pulkit,001,2023-10-11_17h55.19.653,psychopy project 4,2023.1.3,59.98667093005914,
50,c,,seq,0,0,0,0,,,,,31,2,126,2,813.2740035001189,814.2744227000512,814.2744227000512,814.2744227000512,814.2744227000512,814.2744227000512,815.2748158001341,815.2748158001341,c,1,0.36855360004119575,None,pulkit,001,2023-10-11_17h55.19.653,psychopy project 4,2023.1.3,59.98667093005914,
-150,z,,seq,0,0,0,0,,,,,31,3,127,3,815.6749962000176,816.6754797999747,816.6754797999747,816.6754797999747,816.6754797999747,816.6754797999747,817.6590963001363,817.6590963001363,z,1,0.22008050000295043,None,pulkit,001,2023-10-11_17h55.19.653,psychopy project 4,2023.1.3,59.98667093005914,
-50,x,,seq,0,0,0,0,,,,,32,0,128,0,817.9091111000162,818.9096298001241,818.9096298001241,818.9096298001241,818.9096298001241,818.9096298001241,819.893311199965,819.893311199965,x,1,0.23626170004718006,None,pulkit,001,2023-10-11_17h55.19.653,psychopy project 4,2023.1.3,59.98667093005914,
150,v,,seq,0,0,0,0,,,,,32,1,129,1,820.1601301999763,821.1604907000437,821.1604907000437,821.1604907000437,821.1604907000437,821.1604907000437,822.160911800107,822.160911800107,v,1,0.48256639996543527,None,pulkit,001,2023-10-11_17h55.19.653,psychopy project 4,2023.1.3,59.98667093005914,
50,c,,seq,0,0,0,0,,,,,32,2,130,2,822.6611313999165,823.6615498000756,823.6615498000756,823.6615498000756,823.6615498000756,823.6615498000756,824.6617884000298,824.6617884000298,c,1,0.2852342000696808,None,pulkit,001,2023-10-11_17h55.19.653,psychopy project 4,2023.1.3,59.98667093005914,
-150,z,,seq,0,0,0,0,,,,,32,3,131,3,824.978453299962,825.9623336000368,825.9623336000368,825.9623336000368,825.9623336000368,825.9790531999897,826.9627334999386,826.9627334999386,z,1,0.44188760011456907,None,pulkit,001,2023-10-11_17h55.19.653,psychopy project 4,2023.1.3,59.98667093005914,
-50,x,,seq,0,0,0,0,,,,,33,0,132,0,827.4294837999623,828.429653899977,828.429653899977,828.429653899977,828.429653899977,828.429653899977,829.4302763000596,829.4302763000596,x,1,0.3499610999133438,None,pulkit,001,2023-10-11_17h55.19.653,psychopy project 4,2023.1.3,59.98667093005914,
150,v,,seq,0,0,0,0,,,,,33,1,133,1,829.7969190999866,830.7974125000183,830.7974125000183,830.7974125000183,830.7974125000183,830.7974125000183,831.7977797000203,831.7977797000203,v,1,0.26289930008351803,None,pulkit,001,2023-10-11_17h55.19.653,psychopy project 4,2023.1.3,59.98667093005914,
50,c,,seq,0,0,0,0,,,,,33,2,134,2,832.0814630000386,833.081669599982,833.081669599982,833.081669599982,833.081669599982,833.081669599982,834.0820949999616,834.0820949999616,c,1,0.3026423000264913,None,pulkit,001,2023-10-11_17h55.19.653,psychopy project 4,2023.1.3,59.98667093005914,
-150,z,,seq,0,0,0,0,,,,,33,3,135,3,834.4154026999604,835.4158419999294,835.4158419999294,835.4158419999294,835.4158419999294,835.4158419999294,836.3994605001062,836.3994605001062,z,1,0.28676399984396994,None,pulkit,001,2023-10-11_17h55.19.653,psychopy project 4,2023.1.3,59.98667093005914,
-50,x,,seq,0,0,0,0,,,,,34,0,136,0,836.7162361999508,837.7167879999615,837.7167879999615,837.7167879999615,837.7167879999615,837.7167879999615,838.7003437001258,838.7003437001258,x,1,0.27055419981479645,None,pulkit,001,2023-10-11_17h55.19.653,psychopy project 4,2023.1.3,59.98667093005914,
150,v,,seq,0,0,0,0,,,,,34,1,137,1,839.0007589999586,840.0010798000731,840.0010798000731,840.0010798000731,840.0010798000731,840.0010798000731,841.0012137000449,841.0012137000449,v,1,0.23096009995788336,None,pulkit,001,2023-10-11_17h55.19.653,psychopy project 4,2023.1.3,59.98667093005914,
50,c,,seq,0,0,0,0,,,,,34,2,138,2,841.2514051001053,842.2519857001025,842.2519857001025,842.2519857001025,842.2519857001025,842.2519857001025,843.2353572000284,843.2353572000284,c,1,0.239452000008896,None,pulkit,001,2023-10-11_17h55.19.653,psychopy project 4,2023.1.3,59.98667093005914,
-150,z,,seq,0,0,0,0,,,,,34,3,139,3,843.5021621999331,844.4860211000778,844.4860211000778,844.4860211000778,844.4860211000778,844.5027719999198,845.486328799976,845.486328799976,z,1,0.32059999997727573,None,pulkit,001,2023-10-11_17h55.19.653,psychopy project 4,2023.1.3,59.98667093005914,
-50,x,,seq,0,0,0,0,,,,,35,0,140,0,845.8361150999554,846.8367582000792,846.8367582000792,846.8367582000792,846.8367582000792,846.8367582000792,847.8372494000942,847.8372494000942,x,1,0.07685690000653267,None,pulkit,001,2023-10-11_17h55.19.653,psychopy project 4,2023.1.3,59.98667093005914,
